SpectraSuite Data File
++++++++++++++++++++++++++++++++++++
Date: Thu Oct 13 11:15:51 CDT 2011
User: Helimak
Dark Spectrum Present: No
Reference Spectrum Present: No
Number of Sampled Component Spectra: 1
Spectrometers: USB2G37154
Integration Time (usec): 20000 (USB2G37154)
Spectra Averaged: 1 (USB2G37154)
Boxcar Smoothing: 0 (USB2G37154)
Correct for Electrical Dark: No (USB2G37154)
Strobe/Lamp Enabled: No (USB2G37154)
Correct for Detector Non-linearity: No (USB2G37154)
Correct for Stray Light: No (USB2G37154)
Number of Pixels in Processed Spectrum: 651
>>>>>Begin Processed Spectral Data<<<<<
350.00	201.12
351.00	202.18
352.00	198.25
353.00	200.29
354.00	196.80
355.00	199.08
356.00	203.56
357.00	202.14
358.00	202.34
359.00	200.86
360.00	203.13
361.00	201.85
362.00	201.93
363.00	205.12
364.00	202.59
365.00	202.71
366.00	204.34
367.00	201.98
368.00	201.64
369.00	204.07
370.00	204.03
371.00	205.61
372.00	201.88
373.00	206.72
374.00	203.88
375.00	203.54
376.00	206.26
377.00	201.97
378.00	206.67
379.00	200.86
380.00	199.99
381.00	204.49
382.00	205.40
383.00	205.16
384.00	202.03
385.00	203.98
386.00	206.01
387.00	202.24
388.00	200.61
389.00	205.81
390.00	208.72
391.00	203.94
392.00	202.74
393.00	204.45
394.00	206.11
395.00	206.24
396.00	202.93
397.00	205.35
398.00	203.51
399.00	210.82
400.00	209.87
401.00	206.50
402.00	205.74
403.00	203.97
404.00	204.30
405.00	208.74
406.00	208.99
407.00	202.57
408.00	202.86
409.00	207.72
410.00	204.83
411.00	201.69
412.00	208.28
413.00	204.88
414.00	200.06
415.00	206.14
416.00	202.07
417.00	208.49
418.00	207.93
419.00	202.65
420.00	205.05
421.00	205.90
422.00	205.68
423.00	210.83
424.00	206.70
425.00	204.32
426.00	202.29
427.00	206.98
428.00	204.81
429.00	207.21
430.00	206.73
431.00	204.14
432.00	205.98
433.00	204.50
434.00	203.00
435.00	210.79
436.00	204.29
437.00	205.91
438.00	208.82
439.00	204.23
440.00	206.59
441.00	206.27
442.00	206.10
443.00	203.92
444.00	207.82
445.00	209.98
446.00	206.36
447.00	206.83
448.00	207.19
449.00	207.02
450.00	210.20
451.00	207.24
452.00	202.99
453.00	201.82
454.00	202.49
455.00	203.44
456.00	203.96
457.00	205.86
458.00	203.24
459.00	205.23
460.00	206.51
461.00	201.62
462.00	204.70
463.00	205.65
464.00	204.03
465.00	207.17
466.00	206.11
467.00	204.29
468.00	204.01
469.00	200.67
470.00	207.06
471.00	207.51
472.00	208.58
473.00	204.48
474.00	203.71
475.00	206.32
476.00	211.51
477.00	206.82
478.00	203.75
479.00	204.18
480.00	203.84
481.00	203.17
482.00	204.59
483.00	209.62
484.00	207.37
485.00	209.58
486.00	201.29
487.00	203.73
488.00	203.65
489.00	206.97
490.00	206.16
491.00	209.22
492.00	204.60
493.00	206.12
494.00	209.32
495.00	203.75
496.00	206.61
497.00	206.59
498.00	207.08
499.00	202.24
500.00	204.53
501.00	206.40
502.00	206.00
503.00	204.38
504.00	204.74
505.00	208.22
506.00	203.60
507.00	204.05
508.00	205.94
509.00	209.10
510.00	202.56
511.00	210.02
512.00	207.24
513.00	208.50
514.00	200.27
515.00	208.50
516.00	208.02
517.00	204.23
518.00	202.80
519.00	202.16
520.00	204.90
521.00	206.34
522.00	202.21
523.00	203.79
524.00	204.22
525.00	203.00
526.00	206.12
527.00	203.73
528.00	205.96
529.00	202.72
530.00	203.93
531.00	204.82
532.00	204.47
533.00	205.65
534.00	203.21
535.00	203.95
536.00	206.77
537.00	206.37
538.00	206.46
539.00	208.23
540.00	210.09
541.00	208.87
542.00	215.08
543.00	211.16
544.00	210.36
545.00	215.50
546.00	217.18
547.00	216.75
548.00	207.08
549.00	205.37
550.00	205.93
551.00	212.92
552.00	202.29
553.00	206.88
554.00	203.87
555.00	201.45
556.00	201.87
557.00	202.20
558.00	203.18
559.00	203.52
560.00	202.78
561.00	206.13
562.00	206.93
563.00	200.63
564.00	206.56
565.00	202.85
566.00	204.00
567.00	202.22
568.00	202.05
569.00	208.01
570.00	205.66
571.00	207.16
572.00	203.77
573.00	202.03
574.00	203.89
575.00	206.25
576.00	205.25
577.00	205.07
578.00	205.12
579.00	205.85
580.00	209.53
581.00	210.02
582.00	205.48
583.00	207.63
584.00	205.16
585.00	205.02
586.00	205.21
587.00	207.15
588.00	205.30
589.00	205.23
590.00	207.08
591.00	205.55
592.00	201.71
593.00	207.93
594.00	202.02
595.00	208.94
596.00	201.94
597.00	208.93
598.00	201.73
599.00	206.88
600.00	205.02
601.00	205.89
602.00	203.96
603.00	205.16
604.00	205.75
605.00	203.01
606.00	209.13
607.00	204.60
608.00	192.89
609.00	203.97
610.00	209.86
611.00	222.17
612.00	218.79
613.00	213.08
614.00	207.04
615.00	208.65
616.00	207.86
617.00	202.03
618.00	204.12
619.00	204.46
620.00	207.03
621.00	204.44
622.00	204.74
623.00	205.36
624.00	203.66
625.00	205.81
626.00	197.14
627.00	204.99
628.00	206.15
629.00	205.37
630.00	204.66
631.00	201.80
632.00	206.00
633.00	205.11
634.00	198.88
635.00	206.97
636.00	200.20
637.00	201.82
638.00	203.84
639.00	202.87
640.00	202.64
641.00	199.94
642.00	205.26
643.00	200.97
644.00	201.57
645.00	205.98
646.00	203.92
647.00	205.61
648.00	207.77
649.00	208.16
650.00	203.87
651.00	204.82
652.00	206.09
653.00	204.59
654.00	206.80
655.00	204.47
656.00	203.89
657.00	203.56
658.00	205.01
659.00	201.79
660.00	201.87
661.00	204.77
662.00	204.42
663.00	200.79
664.00	207.69
665.00	206.62
666.00	201.71
667.00	205.37
668.00	204.86
669.00	202.09
670.00	202.33
671.00	206.63
672.00	205.04
673.00	197.98
674.00	199.92
675.00	204.91
676.00	206.20
677.00	205.34
678.00	206.57
679.00	202.06
680.00	205.55
681.00	200.74
682.00	206.41
683.00	204.40
684.00	206.50
685.00	206.15
686.00	204.72
687.00	201.36
688.00	202.11
689.00	208.31
690.00	203.47
691.00	200.47
692.00	202.67
693.00	202.96
694.00	201.96
695.00	202.96
696.00	205.00
697.00	202.03
698.00	204.86
699.00	200.32
700.00	203.03
701.00	205.22
702.00	202.98
703.00	207.36
704.00	202.33
705.00	207.82
706.00	200.46
707.00	206.89
708.00	203.48
709.00	207.80
710.00	204.00
711.00	201.62
712.00	204.50
713.00	204.42
714.00	198.93
715.00	204.33
716.00	207.02
717.00	202.59
718.00	203.06
719.00	203.08
720.00	202.23
721.00	203.41
722.00	202.35
723.00	203.57
724.00	202.17
725.00	209.81
726.00	204.90
727.00	204.21
728.00	201.12
729.00	203.44
730.00	202.09
731.00	205.03
732.00	202.32
733.00	204.84
734.00	202.51
735.00	206.22
736.00	204.44
737.00	202.58
738.00	205.56
739.00	203.70
740.00	200.50
741.00	204.81
742.00	202.03
743.00	204.08
744.00	198.36
745.00	201.95
746.00	205.68
747.00	202.12
748.00	204.69
749.00	203.73
750.00	203.35
751.00	207.21
752.00	203.02
753.00	200.97
754.00	205.00
755.00	202.29
756.00	205.00
757.00	202.73
758.00	204.81
759.00	202.64
760.00	201.58
761.00	201.63
762.00	208.06
763.00	200.22
764.00	204.02
765.00	199.93
766.00	205.65
767.00	202.82
768.00	203.94
769.00	203.17
770.00	203.84
771.00	200.96
772.00	204.90
773.00	203.83
774.00	197.61
775.00	203.12
776.00	204.35
777.00	200.23
778.00	205.00
779.00	203.77
780.00	204.23
781.00	201.16
782.00	199.64
783.00	198.71
784.00	205.05
785.00	205.80
786.00	201.59
787.00	202.42
788.00	205.18
789.00	206.01
790.00	202.18
791.00	204.68
792.00	203.52
793.00	203.81
794.00	208.19
795.00	205.52
796.00	205.33
797.00	207.72
798.00	206.96
799.00	204.22
800.00	206.56
801.00	201.31
802.00	203.33
803.00	200.22
804.00	203.40
805.00	202.15
806.00	202.91
807.00	207.98
808.00	205.13
809.00	201.17
810.00	203.83
811.00	201.39
812.00	208.41
813.00	206.17
814.00	200.96
815.00	207.98
816.00	200.30
817.00	201.69
818.00	205.19
819.00	202.54
820.00	204.69
821.00	208.94
822.00	204.06
823.00	203.23
824.00	201.50
825.00	203.06
826.00	201.58
827.00	201.20
828.00	201.99
829.00	202.25
830.00	200.14
831.00	204.85
832.00	204.35
833.00	201.78
834.00	203.61
835.00	201.78
836.00	204.07
837.00	201.79
838.00	202.26
839.00	203.08
840.00	206.88
841.00	206.34
842.00	203.69
843.00	204.93
844.00	201.90
845.00	203.76
846.00	204.49
847.00	200.72
848.00	201.97
849.00	209.57
850.00	199.70
851.00	203.44
852.00	202.68
853.00	199.10
854.00	198.48
855.00	197.01
856.00	203.04
857.00	203.14
858.00	204.98
859.00	201.10
860.00	203.61
861.00	203.04
862.00	194.82
863.00	203.41
864.00	202.25
865.00	201.25
866.00	205.91
867.00	204.42
868.00	204.01
869.00	201.13
870.00	202.90
871.00	201.48
872.00	204.17
873.00	203.94
874.00	204.02
875.00	202.49
876.00	202.95
877.00	200.14
878.00	203.58
879.00	202.13
880.00	202.82
881.00	204.73
882.00	207.69
883.00	204.26
884.00	205.01
885.00	202.78
886.00	203.20
887.00	204.94
888.00	203.04
889.00	205.02
890.00	199.59
891.00	204.50
892.00	204.77
893.00	201.23
894.00	202.14
895.00	205.90
896.00	205.12
897.00	198.73
898.00	207.49
899.00	202.33
900.00	201.30
901.00	203.51
902.00	203.18
903.00	202.58
904.00	204.85
905.00	204.91
906.00	201.48
907.00	203.82
908.00	206.03
909.00	204.14
910.00	203.76
911.00	205.13
912.00	203.66
913.00	204.17
914.00	204.98
915.00	207.21
916.00	202.08
917.00	203.12
918.00	206.79
919.00	204.23
920.00	205.99
921.00	201.43
922.00	204.07
923.00	204.06
924.00	204.35
925.00	203.65
926.00	200.00
927.00	202.91
928.00	202.33
929.00	204.09
930.00	201.32
931.00	205.38
932.00	202.14
933.00	204.91
934.00	203.90
935.00	203.25
936.00	205.71
937.00	202.98
938.00	205.32
939.00	205.72
940.00	203.19
941.00	207.35
942.00	203.00
943.00	203.62
944.00	204.51
945.00	200.99
946.00	202.83
947.00	207.07
948.00	203.96
949.00	204.81
950.00	207.66
951.00	203.32
952.00	201.00
953.00	202.68
954.00	201.18
955.00	202.64
956.00	203.37
957.00	203.95
958.00	207.06
959.00	201.96
960.00	204.52
961.00	203.84
962.00	202.01
963.00	204.98
964.00	200.18
965.00	205.03
966.00	203.76
967.00	204.53
968.00	206.00
969.00	207.06
970.00	201.02
971.00	205.73
972.00	205.47
973.00	202.03
974.00	203.27
975.00	204.52
976.00	206.89
977.00	203.57
978.00	206.12
979.00	204.93
980.00	203.66
981.00	203.01
982.00	204.77
983.00	203.94
984.00	204.02
985.00	204.12
986.00	204.52
987.00	202.68
988.00	201.23
989.00	201.84
990.00	203.57
991.00	207.66
992.00	201.14
993.00	205.98
994.00	205.64
995.00	201.00
996.00	204.06
997.00	205.28
998.00	203.72
999.00	203.05
1000.00	199.86
>>>>>End Processed Spectral Data<<<<<
