SpectraSuite Data File
++++++++++++++++++++++++++++++++++++
Date: Thu Oct 13 14:59:44 CDT 2011
User: Helimak
Dark Spectrum Present: No
Reference Spectrum Present: No
Number of Sampled Component Spectra: 1
Spectrometers: USB2G37154
Integration Time (usec): 200000 (USB2G37154)
Spectra Averaged: 1 (USB2G37154)
Boxcar Smoothing: 0 (USB2G37154)
Correct for Electrical Dark: No (USB2G37154)
Strobe/Lamp Enabled: No (USB2G37154)
Correct for Detector Non-linearity: No (USB2G37154)
Correct for Stray Light: No (USB2G37154)
Number of Pixels in Processed Spectrum: 651
>>>>>Begin Processed Spectral Data<<<<<
350.00	196.19
351.00	198.22
352.00	195.27
353.00	198.12
354.00	199.38
355.00	195.74
356.00	187.21
357.00	198.09
358.00	202.11
359.00	197.16
360.00	196.27
361.00	197.83
362.00	206.63
363.00	195.19
364.00	198.96
365.00	195.87
366.00	195.96
367.00	199.90
368.00	197.76
369.00	198.63
370.00	202.04
371.00	198.91
372.00	202.77
373.00	199.81
374.00	197.87
375.00	203.19
376.00	196.76
377.00	200.27
378.00	202.93
379.00	201.65
380.00	193.74
381.00	201.71
382.00	198.78
383.00	204.81
384.00	199.81
385.00	204.01
386.00	196.95
387.00	201.75
388.00	196.93
389.00	198.67
390.00	198.19
391.00	199.04
392.00	196.58
393.00	199.23
394.00	204.25
395.00	200.41
396.00	199.97
397.00	200.23
398.00	198.56
399.00	204.70
400.00	198.03
401.00	199.50
402.00	198.08
403.00	199.75
404.00	198.06
405.00	200.18
406.00	199.00
407.00	201.90
408.00	194.91
409.00	200.20
410.00	201.47
411.00	200.00
412.00	198.63
413.00	206.05
414.00	198.08
415.00	202.94
416.00	200.36
417.00	199.68
418.00	200.72
419.00	201.45
420.00	202.99
421.00	197.10
422.00	200.24
423.00	201.03
424.00	199.06
425.00	201.89
426.00	201.23
427.00	206.05
428.00	203.51
429.00	203.22
430.00	199.27
431.00	201.72
432.00	205.13
433.00	201.67
434.00	207.16
435.00	197.77
436.00	198.82
437.00	205.20
438.00	196.94
439.00	200.29
440.00	198.94
441.00	199.82
442.00	199.14
443.00	199.47
444.00	200.89
445.00	197.96
446.00	203.59
447.00	195.89
448.00	198.39
449.00	199.93
450.00	197.07
451.00	206.03
452.00	198.99
453.00	200.30
454.00	197.55
455.00	199.97
456.00	198.77
457.00	204.04
458.00	198.04
459.00	196.74
460.00	202.20
461.00	200.95
462.00	201.38
463.00	203.86
464.00	197.42
465.00	204.71
466.00	209.03
467.00	201.20
468.00	197.83
469.00	198.67
470.00	204.10
471.00	202.04
472.00	200.07
473.00	202.37
474.00	199.30
475.00	200.88
476.00	198.92
477.00	194.60
478.00	198.88
479.00	201.76
480.00	205.54
481.00	203.33
482.00	199.76
483.00	198.82
484.00	199.22
485.00	201.92
486.00	200.10
487.00	203.88
488.00	201.09
489.00	200.98
490.00	200.14
491.00	202.19
492.00	198.89
493.00	198.03
494.00	196.24
495.00	198.47
496.00	198.34
497.00	198.74
498.00	197.13
499.00	199.80
500.00	199.18
501.00	196.03
502.00	202.01
503.00	202.38
504.00	197.51
505.00	199.33
506.00	201.49
507.00	200.06
508.00	201.52
509.00	200.94
510.00	202.20
511.00	200.01
512.00	203.10
513.00	201.44
514.00	199.39
515.00	197.59
516.00	201.03
517.00	198.59
518.00	199.67
519.00	200.27
520.00	202.31
521.00	198.13
522.00	196.14
523.00	197.42
524.00	200.68
525.00	201.16
526.00	200.57
527.00	195.32
528.00	197.35
529.00	200.92
530.00	199.94
531.00	195.37
532.00	200.24
533.00	197.40
534.00	201.57
535.00	198.22
536.00	198.45
537.00	200.12
538.00	201.88
539.00	197.26
540.00	197.61
541.00	198.77
542.00	198.26
543.00	199.07
544.00	197.95
545.00	202.21
546.00	197.83
547.00	200.46
548.00	197.76
549.00	196.60
550.00	200.48
551.00	195.06
552.00	198.08
553.00	194.88
554.00	201.21
555.00	201.05
556.00	200.09
557.00	197.10
558.00	201.43
559.00	198.07
560.00	200.57
561.00	200.58
562.00	201.10
563.00	201.19
564.00	197.10
565.00	205.25
566.00	200.29
567.00	201.28
568.00	197.14
569.00	203.20
570.00	202.88
571.00	210.98
572.00	195.70
573.00	203.64
574.00	202.00
575.00	198.50
576.00	202.64
577.00	199.60
578.00	200.98
579.00	196.84
580.00	196.23
581.00	198.86
582.00	203.27
583.00	200.11
584.00	197.63
585.00	200.72
586.00	200.99
587.00	197.97
588.00	199.72
589.00	200.17
590.00	200.66
591.00	198.06
592.00	198.97
593.00	198.47
594.00	200.04
595.00	198.16
596.00	193.69
597.00	200.43
598.00	200.44
599.00	200.80
600.00	198.29
601.00	202.02
602.00	192.89
603.00	200.18
604.00	201.69
605.00	198.11
606.00	198.89
607.00	197.17
608.00	201.87
609.00	198.89
610.00	196.70
611.00	198.70
612.00	198.41
613.00	201.18
614.00	193.84
615.00	200.19
616.00	202.13
617.00	199.00
618.00	202.38
619.00	215.68
620.00	198.14
621.00	200.42
622.00	197.17
623.00	201.50
624.00	197.05
625.00	192.09
626.00	198.89
627.00	200.22
628.00	205.55
629.00	203.89
630.00	197.64
631.00	198.37
632.00	197.63
633.00	202.42
634.00	202.26
635.00	202.03
636.00	205.24
637.00	200.20
638.00	200.15
639.00	197.76
640.00	202.09
641.00	196.82
642.00	197.09
643.00	201.21
644.00	197.78
645.00	201.05
646.00	199.97
647.00	195.79
648.00	200.07
649.00	195.82
650.00	202.14
651.00	200.63
652.00	197.08
653.00	196.94
654.00	202.89
655.00	202.76
656.00	198.81
657.00	199.54
658.00	202.00
659.00	199.21
660.00	199.54
661.00	200.49
662.00	194.92
663.00	199.56
664.00	206.98
665.00	198.51
666.00	196.89
667.00	201.15
668.00	204.72
669.00	197.56
670.00	197.62
671.00	198.24
672.00	199.98
673.00	197.04
674.00	198.06
675.00	199.40
676.00	199.39
677.00	200.41
678.00	200.01
679.00	200.47
680.00	200.59
681.00	204.39
682.00	202.85
683.00	198.45
684.00	205.04
685.00	204.16
686.00	199.96
687.00	198.74
688.00	195.89
689.00	201.31
690.00	202.46
691.00	195.87
692.00	198.04
693.00	193.76
694.00	202.89
695.00	194.22
696.00	200.00
697.00	197.01
698.00	198.18
699.00	199.97
700.00	201.02
701.00	202.55
702.00	195.03
703.00	205.25
704.00	200.81
705.00	200.25
706.00	197.30
707.00	201.54
708.00	196.09
709.00	199.86
710.00	200.07
711.00	195.32
712.00	198.92
713.00	196.96
714.00	198.15
715.00	201.08
716.00	200.80
717.00	197.13
718.00	201.91
719.00	202.41
720.00	197.48
721.00	201.38
722.00	198.26
723.00	196.30
724.00	202.17
725.00	221.38
726.00	195.22
727.00	201.40
728.00	198.94
729.00	200.52
730.00	196.69
731.00	200.84
732.00	198.39
733.00	199.35
734.00	200.51
735.00	199.64
736.00	195.75
737.00	202.41
738.00	186.55
739.00	199.86
740.00	198.78
741.00	193.72
742.00	196.06
743.00	202.06
744.00	196.95
745.00	208.79
746.00	198.82
747.00	191.01
748.00	198.65
749.00	198.44
750.00	201.14
751.00	199.56
752.00	200.81
753.00	197.35
754.00	195.76
755.00	198.80
756.00	202.05
757.00	197.40
758.00	200.70
759.00	200.77
760.00	199.03
761.00	191.86
762.00	202.05
763.00	201.79
764.00	198.03
765.00	196.83
766.00	200.05
767.00	202.99
768.00	197.13
769.00	195.69
770.00	199.60
771.00	198.70
772.00	194.06
773.00	200.76
774.00	198.12
775.00	200.91
776.00	199.59
777.00	199.98
778.00	200.02
779.00	200.53
780.00	198.77
781.00	198.72
782.00	196.98
783.00	198.59
784.00	196.25
785.00	198.17
786.00	197.56
787.00	200.68
788.00	199.75
789.00	203.99
790.00	196.90
791.00	200.41
792.00	195.98
793.00	194.18
794.00	199.36
795.00	197.40
796.00	196.34
797.00	200.03
798.00	202.94
799.00	201.96
800.00	201.91
801.00	194.10
802.00	201.24
803.00	202.90
804.00	197.20
805.00	193.15
806.00	198.31
807.00	195.83
808.00	198.38
809.00	196.56
810.00	198.29
811.00	199.60
812.00	202.15
813.00	199.09
814.00	199.22
815.00	195.08
816.00	196.72
817.00	202.89
818.00	203.37
819.00	200.90
820.00	194.76
821.00	195.96
822.00	205.76
823.00	200.55
824.00	198.37
825.00	207.38
826.00	200.35
827.00	198.13
828.00	194.35
829.00	197.04
830.00	193.16
831.00	200.91
832.00	198.55
833.00	201.71
834.00	200.79
835.00	200.92
836.00	198.38
837.00	200.19
838.00	199.71
839.00	198.70
840.00	200.42
841.00	198.35
842.00	199.00
843.00	200.38
844.00	196.93
845.00	199.91
846.00	198.02
847.00	198.69
848.00	197.49
849.00	199.07
850.00	198.10
851.00	200.41
852.00	200.25
853.00	198.64
854.00	199.72
855.00	201.76
856.00	206.07
857.00	195.70
858.00	203.66
859.00	194.48
860.00	198.96
861.00	201.20
862.00	197.58
863.00	196.76
864.00	202.07
865.00	199.01
866.00	197.04
867.00	192.48
868.00	202.02
869.00	198.94
870.00	198.43
871.00	201.65
872.00	199.31
873.00	197.80
874.00	200.75
875.00	197.39
876.00	200.98
877.00	192.08
878.00	198.57
879.00	200.90
880.00	202.13
881.00	195.69
882.00	201.11
883.00	198.29
884.00	198.00
885.00	195.99
886.00	196.70
887.00	198.52
888.00	202.00
889.00	196.74
890.00	198.89
891.00	204.26
892.00	198.28
893.00	196.21
894.00	195.19
895.00	203.62
896.00	201.20
897.00	201.47
898.00	197.94
899.00	198.48
900.00	197.29
901.00	199.09
902.00	197.06
903.00	205.61
904.00	199.67
905.00	197.10
906.00	201.92
907.00	198.16
908.00	197.59
909.00	197.86
910.00	197.67
911.00	197.21
912.00	196.12
913.00	195.30
914.00	199.00
915.00	202.10
916.00	196.39
917.00	198.30
918.00	199.16
919.00	199.76
920.00	198.63
921.00	202.74
922.00	197.84
923.00	199.13
924.00	193.64
925.00	198.78
926.00	195.99
927.00	201.08
928.00	197.32
929.00	197.80
930.00	200.26
931.00	200.75
932.00	196.64
933.00	199.72
934.00	196.18
935.00	198.74
936.00	197.59
937.00	197.89
938.00	201.09
939.00	201.91
940.00	198.41
941.00	203.92
942.00	201.96
943.00	198.54
944.00	193.23
945.00	206.01
946.00	198.57
947.00	199.13
948.00	196.84
949.00	202.25
950.00	203.47
951.00	195.52
952.00	200.02
953.00	196.96
954.00	197.78
955.00	200.88
956.00	199.22
957.00	198.77
958.00	198.30
959.00	195.97
960.00	200.73
961.00	195.13
962.00	201.20
963.00	196.38
964.00	198.57
965.00	197.66
966.00	198.30
967.00	200.09
968.00	198.97
969.00	198.59
970.00	200.49
971.00	199.21
972.00	198.88
973.00	204.53
974.00	198.42
975.00	196.64
976.00	204.22
977.00	198.61
978.00	199.47
979.00	200.17
980.00	198.68
981.00	197.99
982.00	200.45
983.00	200.21
984.00	199.24
985.00	195.34
986.00	196.85
987.00	197.89
988.00	198.07
989.00	199.39
990.00	196.10
991.00	200.37
992.00	195.47
993.00	200.37
994.00	199.40
995.00	196.94
996.00	199.85
997.00	199.32
998.00	197.75
999.00	199.51
1000.00	198.04
>>>>>End Processed Spectral Data<<<<<
