SpectraSuite Data File
++++++++++++++++++++++++++++++++++++
Date: Thu Oct 13 14:59:44 CDT 2011
User: Helimak
Dark Spectrum Present: No
Reference Spectrum Present: No
Number of Sampled Component Spectra: 1
Spectrometers: USB2G37154
Integration Time (usec): 200000 (USB2G37154)
Spectra Averaged: 1 (USB2G37154)
Boxcar Smoothing: 0 (USB2G37154)
Correct for Electrical Dark: No (USB2G37154)
Strobe/Lamp Enabled: No (USB2G37154)
Correct for Detector Non-linearity: No (USB2G37154)
Correct for Stray Light: No (USB2G37154)
Number of Pixels in Processed Spectrum: 651
>>>>>Begin Processed Spectral Data<<<<<
350.00	197.14
351.00	194.73
352.00	198.35
353.00	199.23
354.00	200.05
355.00	198.05
356.00	197.96
357.00	199.50
358.00	202.83
359.00	195.84
360.00	199.30
361.00	192.92
362.00	200.49
363.00	196.53
364.00	203.51
365.00	198.38
366.00	198.10
367.00	201.89
368.00	198.39
369.00	197.57
370.00	192.99
371.00	193.40
372.00	200.90
373.00	198.11
374.00	199.08
375.00	204.97
376.00	201.98
377.00	196.40
378.00	202.58
379.00	205.44
380.00	202.69
381.00	199.94
382.00	202.33
383.00	202.72
384.00	198.84
385.00	202.83
386.00	199.08
387.00	202.92
388.00	201.37
389.00	198.85
390.00	201.71
391.00	202.76
392.00	205.39
393.00	202.39
394.00	200.15
395.00	199.74
396.00	199.05
397.00	200.31
398.00	200.27
399.00	202.03
400.00	203.02
401.00	199.83
402.00	203.33
403.00	205.71
404.00	200.48
405.00	201.40
406.00	197.99
407.00	199.82
408.00	200.06
409.00	199.31
410.00	194.89
411.00	199.82
412.00	197.17
413.00	201.81
414.00	200.25
415.00	201.66
416.00	203.28
417.00	199.43
418.00	201.87
419.00	198.45
420.00	203.86
421.00	198.21
422.00	201.66
423.00	200.59
424.00	205.77
425.00	200.03
426.00	199.99
427.00	201.97
428.00	200.82
429.00	201.01
430.00	200.91
431.00	198.30
432.00	205.08
433.00	200.68
434.00	201.12
435.00	198.70
436.00	205.03
437.00	207.37
438.00	201.78
439.00	200.34
440.00	198.39
441.00	200.93
442.00	202.28
443.00	200.30
444.00	197.81
445.00	202.04
446.00	200.50
447.00	199.76
448.00	201.75
449.00	202.99
450.00	197.48
451.00	203.95
452.00	198.15
453.00	198.15
454.00	201.40
455.00	205.46
456.00	197.88
457.00	199.92
458.00	197.39
459.00	199.66
460.00	204.49
461.00	197.77
462.00	203.28
463.00	204.34
464.00	202.77
465.00	210.99
466.00	205.43
467.00	200.92
468.00	200.10
469.00	203.75
470.00	201.29
471.00	203.47
472.00	198.50
473.00	197.18
474.00	198.77
475.00	195.91
476.00	196.90
477.00	200.69
478.00	201.63
479.00	199.48
480.00	203.86
481.00	202.59
482.00	200.76
483.00	197.85
484.00	203.20
485.00	202.24
486.00	200.36
487.00	199.00
488.00	200.29
489.00	205.01
490.00	207.84
491.00	200.49
492.00	199.63
493.00	203.07
494.00	198.05
495.00	197.61
496.00	202.43
497.00	198.90
498.00	192.28
499.00	201.18
500.00	201.34
501.00	200.98
502.00	201.00
503.00	202.85
504.00	200.00
505.00	202.33
506.00	202.40
507.00	202.25
508.00	200.83
509.00	202.29
510.00	204.23
511.00	207.00
512.00	200.01
513.00	201.04
514.00	197.88
515.00	201.00
516.00	199.04
517.00	204.14
518.00	197.29
519.00	196.54
520.00	201.33
521.00	200.35
522.00	200.98
523.00	195.68
524.00	200.14
525.00	201.15
526.00	205.50
527.00	200.84
528.00	199.90
529.00	201.22
530.00	198.06
531.00	203.17
532.00	200.20
533.00	199.54
534.00	200.85
535.00	201.12
536.00	200.69
537.00	202.96
538.00	202.27
539.00	200.09
540.00	200.14
541.00	198.50
542.00	199.57
543.00	202.03
544.00	198.70
545.00	200.84
546.00	200.93
547.00	201.11
548.00	197.48
549.00	198.68
550.00	202.39
551.00	202.04
552.00	199.77
553.00	197.83
554.00	200.21
555.00	200.84
556.00	196.03
557.00	196.27
558.00	197.06
559.00	197.65
560.00	202.06
561.00	201.00
562.00	202.62
563.00	198.90
564.00	199.07
565.00	197.70
566.00	199.43
567.00	199.19
568.00	199.95
569.00	198.25
570.00	201.15
571.00	212.54
572.00	198.80
573.00	202.81
574.00	205.97
575.00	200.51
576.00	198.81
577.00	199.11
578.00	195.99
579.00	198.03
580.00	196.12
581.00	201.06
582.00	205.33
583.00	198.23
584.00	198.78
585.00	200.01
586.00	200.52
587.00	200.09
588.00	199.95
589.00	199.38
590.00	200.80
591.00	200.45
592.00	198.42
593.00	200.61
594.00	201.03
595.00	198.52
596.00	203.68
597.00	199.35
598.00	201.95
599.00	198.38
600.00	198.40
601.00	200.14
602.00	199.69
603.00	202.55
604.00	197.13
605.00	195.61
606.00	197.92
607.00	198.26
608.00	199.62
609.00	191.94
610.00	197.43
611.00	198.82
612.00	200.46
613.00	202.43
614.00	198.99
615.00	197.85
616.00	197.99
617.00	199.98
618.00	203.05
619.00	218.17
620.00	200.67
621.00	199.83
622.00	197.48
623.00	199.27
624.00	196.21
625.00	202.06
626.00	197.14
627.00	195.25
628.00	197.12
629.00	201.46
630.00	198.49
631.00	203.21
632.00	197.76
633.00	198.85
634.00	200.67
635.00	199.98
636.00	202.87
637.00	198.33
638.00	200.41
639.00	199.64
640.00	205.58
641.00	196.24
642.00	198.51
643.00	196.47
644.00	198.03
645.00	200.16
646.00	200.04
647.00	200.05
648.00	200.08
649.00	202.91
650.00	198.84
651.00	200.20
652.00	195.29
653.00	201.25
654.00	200.26
655.00	195.79
656.00	199.41
657.00	198.73
658.00	204.99
659.00	196.08
660.00	197.32
661.00	197.06
662.00	197.64
663.00	197.33
664.00	205.59
665.00	198.69
666.00	198.91
667.00	204.42
668.00	204.46
669.00	200.72
670.00	199.09
671.00	200.73
672.00	196.59
673.00	200.01
674.00	199.10
675.00	199.03
676.00	199.76
677.00	195.67
678.00	201.03
679.00	196.30
680.00	197.71
681.00	200.98
682.00	200.41
683.00	198.17
684.00	203.26
685.00	200.59
686.00	194.01
687.00	193.75
688.00	195.71
689.00	198.71
690.00	198.24
691.00	202.28
692.00	193.13
693.00	195.31
694.00	198.08
695.00	196.11
696.00	202.00
697.00	204.87
698.00	202.59
699.00	200.11
700.00	193.94
701.00	199.87
702.00	196.77
703.00	199.81
704.00	200.20
705.00	198.60
706.00	196.06
707.00	201.55
708.00	194.27
709.00	200.60
710.00	197.87
711.00	195.92
712.00	203.63
713.00	198.87
714.00	198.79
715.00	197.26
716.00	197.42
717.00	200.75
718.00	202.31
719.00	203.11
720.00	199.13
721.00	200.20
722.00	200.07
723.00	197.75
724.00	202.36
725.00	220.74
726.00	199.43
727.00	197.36
728.00	198.60
729.00	199.66
730.00	200.28
731.00	202.11
732.00	196.62
733.00	199.63
734.00	202.40
735.00	185.32
736.00	202.14
737.00	198.03
738.00	198.96
739.00	202.28
740.00	201.13
741.00	197.74
742.00	197.95
743.00	196.97
744.00	196.73
745.00	208.60
746.00	196.70
747.00	199.26
748.00	198.68
749.00	199.04
750.00	194.61
751.00	197.37
752.00	195.22
753.00	197.32
754.00	192.01
755.00	197.25
756.00	198.28
757.00	196.60
758.00	198.78
759.00	201.75
760.00	197.85
761.00	197.38
762.00	202.40
763.00	205.87
764.00	197.05
765.00	199.97
766.00	201.73
767.00	198.92
768.00	198.64
769.00	199.64
770.00	195.52
771.00	196.30
772.00	193.93
773.00	195.35
774.00	196.52
775.00	204.11
776.00	200.71
777.00	196.25
778.00	201.01
779.00	202.82
780.00	199.55
781.00	198.25
782.00	194.95
783.00	197.77
784.00	201.41
785.00	196.08
786.00	199.75
787.00	203.76
788.00	194.40
789.00	200.98
790.00	201.11
791.00	198.79
792.00	196.38
793.00	198.63
794.00	197.09
795.00	199.21
796.00	195.63
797.00	201.00
798.00	201.90
799.00	201.01
800.00	196.24
801.00	198.82
802.00	197.96
803.00	199.47
804.00	198.27
805.00	200.95
806.00	201.37
807.00	192.68
808.00	200.33
809.00	199.34
810.00	198.56
811.00	201.58
812.00	200.51
813.00	199.33
814.00	198.92
815.00	197.99
816.00	198.03
817.00	203.08
818.00	197.16
819.00	197.69
820.00	198.80
821.00	197.95
822.00	196.80
823.00	198.00
824.00	197.16
825.00	206.31
826.00	201.89
827.00	197.26
828.00	194.66
829.00	196.23
830.00	200.40
831.00	197.89
832.00	195.71
833.00	194.53
834.00	194.06
835.00	198.94
836.00	198.25
837.00	196.07
838.00	196.97
839.00	194.85
840.00	193.47
841.00	194.90
842.00	198.63
843.00	200.10
844.00	194.59
845.00	197.97
846.00	196.54
847.00	199.66
848.00	198.53
849.00	197.57
850.00	196.14
851.00	194.94
852.00	199.81
853.00	198.10
854.00	196.32
855.00	196.40
856.00	206.28
857.00	198.65
858.00	204.05
859.00	198.15
860.00	201.24
861.00	200.24
862.00	196.96
863.00	196.18
864.00	201.94
865.00	199.82
866.00	198.38
867.00	198.13
868.00	206.03
869.00	199.22
870.00	197.77
871.00	197.04
872.00	197.98
873.00	201.08
874.00	200.47
875.00	195.15
876.00	198.19
877.00	202.27
878.00	196.11
879.00	199.18
880.00	198.03
881.00	196.28
882.00	198.13
883.00	198.32
884.00	199.00
885.00	200.51
886.00	200.44
887.00	204.32
888.00	196.12
889.00	202.09
890.00	200.72
891.00	202.59
892.00	198.09
893.00	196.94
894.00	200.15
895.00	202.53
896.00	198.21
897.00	198.91
898.00	196.15
899.00	199.06
900.00	195.59
901.00	198.37
902.00	198.01
903.00	208.69
904.00	196.77
905.00	195.95
906.00	202.70
907.00	201.09
908.00	196.56
909.00	198.61
910.00	198.30
911.00	199.88
912.00	201.96
913.00	204.35
914.00	200.95
915.00	197.43
916.00	202.06
917.00	198.18
918.00	198.80
919.00	198.77
920.00	199.28
921.00	200.74
922.00	198.21
923.00	204.07
924.00	196.76
925.00	199.59
926.00	204.00
927.00	203.50
928.00	197.06
929.00	199.02
930.00	198.84
931.00	199.90
932.00	196.94
933.00	202.10
934.00	200.21
935.00	198.27
936.00	197.81
937.00	202.07
938.00	201.19
939.00	195.26
940.00	199.02
941.00	197.30
942.00	203.02
943.00	199.25
944.00	198.03
945.00	200.35
946.00	199.77
947.00	201.09
948.00	197.70
949.00	200.80
950.00	199.94
951.00	203.98
952.00	195.03
953.00	199.68
954.00	198.07
955.00	199.61
956.00	199.50
957.00	201.01
958.00	197.10
959.00	200.95
960.00	198.20
961.00	198.37
962.00	200.19
963.00	194.81
964.00	200.29
965.00	198.09
966.00	197.24
967.00	198.44
968.00	202.98
969.00	198.29
970.00	198.44
971.00	201.07
972.00	198.28
973.00	202.17
974.00	199.35
975.00	199.03
976.00	201.52
977.00	196.96
978.00	197.15
979.00	200.20
980.00	196.33
981.00	193.83
982.00	200.79
983.00	197.97
984.00	200.37
985.00	199.84
986.00	199.89
987.00	193.99
988.00	199.51
989.00	198.04
990.00	198.58
991.00	202.14
992.00	198.40
993.00	199.79
994.00	201.64
995.00	197.56
996.00	200.11
997.00	202.53
998.00	198.69
999.00	199.07
1000.00	201.10
>>>>>End Processed Spectral Data<<<<<
