SpectraSuite Data File
++++++++++++++++++++++++++++++++++++
Date: Thu Oct 13 14:59:44 CDT 2011
User: Helimak
Dark Spectrum Present: No
Reference Spectrum Present: No
Number of Sampled Component Spectra: 1
Spectrometers: USB2G37154
Integration Time (usec): 200000 (USB2G37154)
Spectra Averaged: 1 (USB2G37154)
Boxcar Smoothing: 0 (USB2G37154)
Correct for Electrical Dark: No (USB2G37154)
Strobe/Lamp Enabled: No (USB2G37154)
Correct for Detector Non-linearity: No (USB2G37154)
Correct for Stray Light: No (USB2G37154)
Number of Pixels in Processed Spectrum: 651
>>>>>Begin Processed Spectral Data<<<<<
350.00	194.83
351.00	197.68
352.00	195.90
353.00	198.53
354.00	197.83
355.00	195.11
356.00	198.69
357.00	193.13
358.00	200.82
359.00	199.08
360.00	198.39
361.00	200.01
362.00	202.20
363.00	197.28
364.00	197.62
365.00	194.88
366.00	200.76
367.00	197.82
368.00	195.81
369.00	195.78
370.00	200.01
371.00	195.41
372.00	198.96
373.00	198.66
374.00	200.37
375.00	201.51
376.00	198.75
377.00	196.97
378.00	204.04
379.00	203.10
380.00	201.45
381.00	197.38
382.00	202.15
383.00	201.99
384.00	200.78
385.00	198.64
386.00	199.01
387.00	198.26
388.00	198.50
389.00	198.83
390.00	199.21
391.00	198.45
392.00	199.33
393.00	199.19
394.00	197.70
395.00	197.32
396.00	195.08
397.00	200.04
398.00	200.04
399.00	197.16
400.00	199.40
401.00	197.92
402.00	197.51
403.00	201.71
404.00	199.47
405.00	197.22
406.00	200.01
407.00	202.25
408.00	197.38
409.00	200.52
410.00	200.16
411.00	201.45
412.00	205.18
413.00	200.93
414.00	199.82
415.00	201.43
416.00	200.17
417.00	200.65
418.00	200.94
419.00	200.24
420.00	203.32
421.00	199.15
422.00	200.15
423.00	200.45
424.00	199.52
425.00	198.79
426.00	197.90
427.00	204.97
428.00	196.86
429.00	200.58
430.00	197.47
431.00	195.68
432.00	205.23
433.00	201.79
434.00	204.18
435.00	199.92
436.00	201.02
437.00	207.04
438.00	200.59
439.00	199.04
440.00	201.77
441.00	202.66
442.00	194.74
443.00	199.46
444.00	199.32
445.00	197.26
446.00	197.34
447.00	197.55
448.00	203.89
449.00	204.91
450.00	202.53
451.00	201.36
452.00	201.53
453.00	201.12
454.00	203.85
455.00	203.36
456.00	200.75
457.00	205.88
458.00	202.83
459.00	197.15
460.00	203.26
461.00	202.99
462.00	198.91
463.00	202.29
464.00	200.35
465.00	210.83
466.00	203.78
467.00	197.62
468.00	201.55
469.00	203.69
470.00	198.94
471.00	194.02
472.00	201.24
473.00	202.55
474.00	203.68
475.00	203.27
476.00	201.20
477.00	197.08
478.00	200.22
479.00	198.83
480.00	199.68
481.00	203.69
482.00	203.40
483.00	202.86
484.00	196.76
485.00	198.16
486.00	198.11
487.00	197.45
488.00	200.90
489.00	199.91
490.00	201.73
491.00	202.30
492.00	198.85
493.00	197.94
494.00	203.57
495.00	200.35
496.00	197.21
497.00	198.58
498.00	200.68
499.00	201.69
500.00	199.80
501.00	197.21
502.00	198.00
503.00	199.34
504.00	204.73
505.00	200.52
506.00	201.66
507.00	202.04
508.00	198.74
509.00	192.09
510.00	197.42
511.00	200.96
512.00	198.72
513.00	201.33
514.00	197.82
515.00	197.93
516.00	198.04
517.00	201.37
518.00	200.22
519.00	198.50
520.00	201.72
521.00	200.76
522.00	199.89
523.00	203.42
524.00	200.42
525.00	197.98
526.00	205.66
527.00	203.16
528.00	199.05
529.00	201.61
530.00	201.06
531.00	199.38
532.00	199.07
533.00	198.66
534.00	199.61
535.00	198.87
536.00	197.45
537.00	200.38
538.00	200.37
539.00	202.40
540.00	197.96
541.00	199.19
542.00	200.79
543.00	199.58
544.00	201.76
545.00	203.35
546.00	200.95
547.00	198.41
548.00	197.18
549.00	197.45
550.00	197.46
551.00	199.03
552.00	200.33
553.00	195.40
554.00	198.54
555.00	198.29
556.00	199.97
557.00	199.98
558.00	195.23
559.00	200.67
560.00	203.61
561.00	201.81
562.00	197.95
563.00	198.80
564.00	201.41
565.00	197.79
566.00	201.52
567.00	202.76
568.00	200.10
569.00	199.37
570.00	205.48
571.00	208.71
572.00	200.27
573.00	206.97
574.00	207.03
575.00	197.36
576.00	199.71
577.00	199.78
578.00	196.54
579.00	199.69
580.00	202.44
581.00	200.95
582.00	204.19
583.00	199.07
584.00	197.87
585.00	202.05
586.00	200.32
587.00	200.98
588.00	200.67
589.00	196.58
590.00	199.74
591.00	199.15
592.00	197.88
593.00	197.89
594.00	197.01
595.00	195.43
596.00	199.18
597.00	198.20
598.00	201.27
599.00	199.41
600.00	200.51
601.00	201.21
602.00	197.05
603.00	200.90
604.00	196.53
605.00	199.26
606.00	199.08
607.00	199.14
608.00	201.02
609.00	198.02
610.00	198.24
611.00	200.49
612.00	201.30
613.00	197.91
614.00	196.17
615.00	196.43
616.00	198.87
617.00	198.97
618.00	200.36
619.00	218.45
620.00	197.84
621.00	205.20
622.00	199.33
623.00	200.45
624.00	199.19
625.00	197.94
626.00	196.80
627.00	197.47
628.00	199.84
629.00	204.13
630.00	195.45
631.00	199.22
632.00	196.18
633.00	198.13
634.00	199.82
635.00	195.93
636.00	201.39
637.00	196.91
638.00	196.01
639.00	198.47
640.00	205.10
641.00	197.81
642.00	203.01
643.00	198.84
644.00	200.28
645.00	198.17
646.00	202.03
647.00	196.44
648.00	199.53
649.00	200.53
650.00	196.35
651.00	198.29
652.00	200.43
653.00	198.40
654.00	202.46
655.00	202.19
656.00	200.59
657.00	197.85
658.00	200.00
659.00	201.34
660.00	197.93
661.00	200.46
662.00	197.23
663.00	198.54
664.00	207.40
665.00	202.14
666.00	196.46
667.00	199.32
668.00	206.13
669.00	193.29
670.00	199.33
671.00	196.24
672.00	198.89
673.00	196.02
674.00	201.12
675.00	200.60
676.00	200.59
677.00	199.21
678.00	199.53
679.00	200.06
680.00	202.86
681.00	201.05
682.00	204.65
683.00	204.46
684.00	208.17
685.00	206.64
686.00	197.65
687.00	196.52
688.00	197.59
689.00	199.82
690.00	196.30
691.00	198.52
692.00	197.95
693.00	197.74
694.00	196.06
695.00	200.94
696.00	202.00
697.00	206.00
698.00	201.04
699.00	199.87
700.00	197.93
701.00	198.08
702.00	196.77
703.00	199.58
704.00	199.23
705.00	195.50
706.00	198.02
707.00	199.53
708.00	195.93
709.00	201.91
710.00	198.21
711.00	196.05
712.00	201.49
713.00	198.04
714.00	186.76
715.00	199.61
716.00	200.69
717.00	198.94
718.00	204.11
719.00	194.84
720.00	200.54
721.00	194.05
722.00	197.62
723.00	196.97
724.00	196.42
725.00	221.70
726.00	196.57
727.00	197.80
728.00	201.00
729.00	199.18
730.00	198.54
731.00	192.04
732.00	200.29
733.00	198.61
734.00	199.14
735.00	198.80
736.00	195.21
737.00	195.35
738.00	200.23
739.00	200.09
740.00	199.09
741.00	201.97
742.00	197.07
743.00	196.98
744.00	196.78
745.00	207.51
746.00	200.56
747.00	201.60
748.00	196.88
749.00	198.88
750.00	198.17
751.00	198.98
752.00	197.88
753.00	196.82
754.00	198.16
755.00	196.05
756.00	195.42
757.00	195.21
758.00	201.51
759.00	202.52
760.00	202.36
761.00	199.52
762.00	200.00
763.00	199.97
764.00	198.96
765.00	195.96
766.00	199.36
767.00	198.63
768.00	195.33
769.00	200.35
770.00	201.59
771.00	195.32
772.00	195.99
773.00	199.34
774.00	199.21
775.00	205.38
776.00	196.91
777.00	198.35
778.00	198.00
779.00	203.06
780.00	198.01
781.00	196.33
782.00	199.50
783.00	197.80
784.00	199.06
785.00	195.95
786.00	196.49
787.00	200.85
788.00	200.57
789.00	200.04
790.00	194.81
791.00	196.49
792.00	196.98
793.00	198.92
794.00	198.48
795.00	200.42
796.00	199.09
797.00	197.51
798.00	199.13
799.00	200.17
800.00	198.18
801.00	195.16
802.00	199.43
803.00	203.84
804.00	195.03
805.00	199.10
806.00	200.97
807.00	198.95
808.00	198.36
809.00	198.84
810.00	198.71
811.00	199.46
812.00	200.07
813.00	202.57
814.00	200.09
815.00	197.04
816.00	198.17
817.00	203.22
818.00	199.00
819.00	196.46
820.00	197.29
821.00	201.07
822.00	201.45
823.00	200.77
824.00	195.61
825.00	207.51
826.00	200.31
827.00	197.94
828.00	196.95
829.00	199.22
830.00	201.92
831.00	199.70
832.00	198.96
833.00	197.79
834.00	196.30
835.00	204.87
836.00	199.48
837.00	200.80
838.00	199.32
839.00	194.87
840.00	205.27
841.00	199.25
842.00	201.12
843.00	202.02
844.00	200.24
845.00	205.44
846.00	198.16
847.00	201.52
848.00	193.23
849.00	197.64
850.00	203.22
851.00	196.08
852.00	200.67
853.00	201.85
854.00	198.11
855.00	202.16
856.00	204.67
857.00	200.80
858.00	199.87
859.00	201.05
860.00	201.61
861.00	203.90
862.00	199.51
863.00	197.86
864.00	200.64
865.00	198.17
866.00	201.20
867.00	194.58
868.00	197.96
869.00	197.92
870.00	194.92
871.00	198.80
872.00	195.77
873.00	201.72
874.00	188.40
875.00	198.87
876.00	202.27
877.00	197.10
878.00	201.26
879.00	200.21
880.00	200.02
881.00	200.68
882.00	197.39
883.00	197.59
884.00	199.99
885.00	200.43
886.00	202.42
887.00	198.58
888.00	198.82
889.00	197.53
890.00	198.51
891.00	202.11
892.00	204.41
893.00	194.00
894.00	197.66
895.00	209.90
896.00	196.79
897.00	196.72
898.00	194.88
899.00	194.30
900.00	197.24
901.00	200.23
902.00	197.73
903.00	207.54
904.00	195.80
905.00	193.07
906.00	201.20
907.00	196.74
908.00	196.64
909.00	195.73
910.00	195.71
911.00	198.80
912.00	195.74
913.00	201.32
914.00	200.97
915.00	196.73
916.00	201.30
917.00	202.02
918.00	202.58
919.00	195.16
920.00	197.84
921.00	198.34
922.00	196.24
923.00	201.03
924.00	201.22
925.00	198.98
926.00	197.03
927.00	198.17
928.00	199.46
929.00	201.81
930.00	193.62
931.00	203.33
932.00	199.05
933.00	196.51
934.00	202.22
935.00	198.35
936.00	198.03
937.00	195.30
938.00	201.01
939.00	200.52
940.00	200.89
941.00	200.99
942.00	199.02
943.00	198.33
944.00	195.56
945.00	205.06
946.00	196.80
947.00	197.96
948.00	198.25
949.00	198.09
950.00	200.70
951.00	198.23
952.00	197.05
953.00	195.69
954.00	193.48
955.00	199.34
956.00	196.40
957.00	205.06
958.00	198.12
959.00	197.97
960.00	200.10
961.00	195.04
962.00	198.90
963.00	201.61
964.00	196.90
965.00	201.02
966.00	200.82
967.00	200.05
968.00	200.97
969.00	201.85
970.00	199.31
971.00	198.01
972.00	191.64
973.00	205.14
974.00	200.22
975.00	201.88
976.00	202.03
977.00	198.78
978.00	198.73
979.00	198.43
980.00	198.41
981.00	196.02
982.00	203.54
983.00	202.64
984.00	201.86
985.00	200.12
986.00	196.20
987.00	200.55
988.00	203.42
989.00	195.61
990.00	197.36
991.00	200.67
992.00	199.27
993.00	201.02
994.00	198.76
995.00	199.08
996.00	197.30
997.00	208.25
998.00	195.08
999.00	199.25
1000.00	199.95
>>>>>End Processed Spectral Data<<<<<
