SpectraSuite Data File
++++++++++++++++++++++++++++++++++++
Date: Thu Oct 13 14:59:44 CDT 2011
User: Helimak
Dark Spectrum Present: No
Reference Spectrum Present: No
Number of Sampled Component Spectra: 1
Spectrometers: USB2G37154
Integration Time (usec): 200000 (USB2G37154)
Spectra Averaged: 1 (USB2G37154)
Boxcar Smoothing: 0 (USB2G37154)
Correct for Electrical Dark: No (USB2G37154)
Strobe/Lamp Enabled: No (USB2G37154)
Correct for Detector Non-linearity: No (USB2G37154)
Correct for Stray Light: No (USB2G37154)
Number of Pixels in Processed Spectrum: 651
>>>>>Begin Processed Spectral Data<<<<<
350.00	196.08
351.00	195.21
352.00	196.43
353.00	196.24
354.00	198.10
355.00	198.94
356.00	200.46
357.00	193.65
358.00	198.27
359.00	196.02
360.00	191.67
361.00	192.60
362.00	198.74
363.00	196.33
364.00	201.81
365.00	200.12
366.00	196.37
367.00	197.89
368.00	199.16
369.00	201.00
370.00	201.00
371.00	200.40
372.00	200.51
373.00	198.02
374.00	198.61
375.00	198.46
376.00	198.35
377.00	194.74
378.00	199.97
379.00	196.76
380.00	197.00
381.00	198.08
382.00	201.23
383.00	204.87
384.00	200.81
385.00	200.11
386.00	201.96
387.00	202.57
388.00	198.70
389.00	198.33
390.00	200.78
391.00	195.66
392.00	199.68
393.00	204.92
394.00	203.48
395.00	196.06
396.00	202.98
397.00	197.93
398.00	196.09
399.00	199.05
400.00	201.08
401.00	198.94
402.00	199.04
403.00	200.95
404.00	201.02
405.00	200.17
406.00	202.01
407.00	199.13
408.00	201.06
409.00	199.56
410.00	202.39
411.00	200.71
412.00	200.03
413.00	199.71
414.00	201.48
415.00	201.27
416.00	202.22
417.00	201.06
418.00	202.01
419.00	202.92
420.00	199.15
421.00	195.74
422.00	197.24
423.00	200.00
424.00	201.23
425.00	200.55
426.00	200.42
427.00	204.96
428.00	198.62
429.00	203.30
430.00	204.98
431.00	201.88
432.00	204.36
433.00	203.21
434.00	199.29
435.00	202.31
436.00	201.23
437.00	208.93
438.00	199.10
439.00	203.12
440.00	199.62
441.00	198.03
442.00	194.57
443.00	200.16
444.00	202.23
445.00	199.93
446.00	206.57
447.00	200.70
448.00	200.76
449.00	201.89
450.00	203.39
451.00	203.50
452.00	200.56
453.00	201.04
454.00	198.82
455.00	201.77
456.00	199.26
457.00	200.05
458.00	198.93
459.00	201.50
460.00	200.33
461.00	200.88
462.00	199.31
463.00	204.76
464.00	200.28
465.00	206.46
466.00	206.94
467.00	201.72
468.00	197.88
469.00	198.01
470.00	199.35
471.00	202.59
472.00	206.39
473.00	204.48
474.00	200.29
475.00	205.06
476.00	199.89
477.00	200.70
478.00	198.57
479.00	199.46
480.00	198.27
481.00	199.08
482.00	198.77
483.00	198.11
484.00	201.20
485.00	203.85
486.00	204.29
487.00	198.83
488.00	203.99
489.00	201.00
490.00	201.74
491.00	202.83
492.00	203.17
493.00	203.25
494.00	201.96
495.00	201.10
496.00	200.94
497.00	196.91
498.00	197.95
499.00	196.19
500.00	201.78
501.00	195.80
502.00	200.01
503.00	200.83
504.00	200.44
505.00	201.91
506.00	201.17
507.00	203.63
508.00	202.48
509.00	202.35
510.00	205.14
511.00	201.01
512.00	201.96
513.00	201.62
514.00	200.07
515.00	199.82
516.00	198.91
517.00	199.38
518.00	200.96
519.00	199.67
520.00	200.90
521.00	199.98
522.00	199.47
523.00	201.38
524.00	200.39
525.00	201.01
526.00	203.12
527.00	198.96
528.00	199.14
529.00	202.97
530.00	201.94
531.00	198.55
532.00	198.60
533.00	201.62
534.00	201.43
535.00	199.79
536.00	198.02
537.00	199.53
538.00	198.69
539.00	197.66
540.00	198.81
541.00	199.10
542.00	198.83
543.00	201.41
544.00	204.78
545.00	199.91
546.00	197.99
547.00	198.62
548.00	197.82
549.00	198.83
550.00	196.13
551.00	201.02
552.00	196.32
553.00	196.66
554.00	204.29
555.00	198.75
556.00	196.15
557.00	195.92
558.00	201.11
559.00	201.75
560.00	199.95
561.00	201.47
562.00	197.85
563.00	195.00
564.00	195.31
565.00	200.71
566.00	204.08
567.00	198.83
568.00	200.00
569.00	198.81
570.00	206.21
571.00	210.68
572.00	196.56
573.00	205.23
574.00	204.79
575.00	196.87
576.00	202.52
577.00	200.68
578.00	197.34
579.00	198.79
580.00	201.02
581.00	199.08
582.00	199.18
583.00	194.98
584.00	197.93
585.00	199.48
586.00	199.87
587.00	199.99
588.00	197.08
589.00	199.59
590.00	197.78
591.00	199.78
592.00	203.94
593.00	198.92
594.00	201.00
595.00	194.96
596.00	195.24
597.00	201.86
598.00	201.96
599.00	201.73
600.00	196.51
601.00	200.22
602.00	198.90
603.00	199.61
604.00	195.35
605.00	200.85
606.00	199.53
607.00	198.08
608.00	197.47
609.00	195.00
610.00	196.58
611.00	198.44
612.00	199.20
613.00	201.06
614.00	200.23
615.00	200.30
616.00	200.03
617.00	198.97
618.00	202.58
619.00	214.09
620.00	197.74
621.00	203.25
622.00	198.96
623.00	199.63
624.00	195.34
625.00	198.23
626.00	198.02
627.00	200.25
628.00	200.19
629.00	202.79
630.00	200.40
631.00	203.27
632.00	198.35
633.00	198.39
634.00	196.75
635.00	195.96
636.00	202.79
637.00	196.79
638.00	197.82
639.00	199.71
640.00	195.26
641.00	201.24
642.00	198.06
643.00	200.21
644.00	199.06
645.00	197.83
646.00	204.01
647.00	197.72
648.00	198.28
649.00	199.07
650.00	199.02
651.00	194.32
652.00	197.65
653.00	198.40
654.00	199.99
655.00	198.36
656.00	201.59
657.00	200.76
658.00	198.99
659.00	203.13
660.00	193.54
661.00	198.50
662.00	199.09
663.00	198.55
664.00	208.98
665.00	201.95
666.00	197.04
667.00	203.29
668.00	192.29
669.00	199.46
670.00	196.27
671.00	197.87
672.00	198.12
673.00	202.02
674.00	197.00
675.00	200.05
676.00	198.66
677.00	196.76
678.00	199.00
679.00	199.98
680.00	203.25
681.00	200.65
682.00	201.30
683.00	198.77
684.00	203.09
685.00	204.03
686.00	199.38
687.00	196.34
688.00	199.12
689.00	198.38
690.00	196.82
691.00	196.69
692.00	199.72
693.00	196.90
694.00	196.25
695.00	198.05
696.00	198.00
697.00	200.89
698.00	201.21
699.00	197.43
700.00	197.75
701.00	197.51
702.00	198.51
703.00	198.43
704.00	201.05
705.00	200.94
706.00	198.94
707.00	195.30
708.00	198.88
709.00	200.94
710.00	196.15
711.00	199.63
712.00	199.86
713.00	198.29
714.00	197.21
715.00	199.50
716.00	199.08
717.00	195.20
718.00	195.93
719.00	198.96
720.00	201.61
721.00	199.89
722.00	196.62
723.00	195.93
724.00	200.22
725.00	217.71
726.00	197.87
727.00	201.38
728.00	202.26
729.00	198.87
730.00	195.96
731.00	196.66
732.00	198.91
733.00	198.06
734.00	203.18
735.00	199.21
736.00	196.22
737.00	200.14
738.00	200.21
739.00	201.07
740.00	204.37
741.00	195.07
742.00	196.97
743.00	199.05
744.00	199.94
745.00	205.30
746.00	197.38
747.00	200.90
748.00	199.08
749.00	198.92
750.00	196.44
751.00	199.57
752.00	196.61
753.00	200.84
754.00	198.41
755.00	197.22
756.00	200.16
757.00	197.21
758.00	198.49
759.00	203.44
760.00	198.65
761.00	191.72
762.00	203.02
763.00	204.94
764.00	196.04
765.00	197.77
766.00	198.09
767.00	201.64
768.00	198.53
769.00	199.44
770.00	199.20
771.00	198.38
772.00	196.11
773.00	198.75
774.00	197.99
775.00	203.53
776.00	198.68
777.00	199.47
778.00	199.02
779.00	203.70
780.00	200.79
781.00	195.36
782.00	203.81
783.00	202.33
784.00	198.49
785.00	198.51
786.00	196.23
787.00	199.52
788.00	196.35
789.00	202.01
790.00	199.78
791.00	201.41
792.00	194.79
793.00	197.77
794.00	198.72
795.00	197.04
796.00	198.75
797.00	197.37
798.00	194.18
799.00	195.79
800.00	198.04
801.00	197.74
802.00	196.94
803.00	200.66
804.00	196.89
805.00	203.16
806.00	197.11
807.00	197.03
808.00	202.37
809.00	205.47
810.00	201.69
811.00	199.47
812.00	196.32
813.00	201.09
814.00	200.19
815.00	196.15
816.00	197.25
817.00	202.19
818.00	195.57
819.00	200.60
820.00	197.21
821.00	196.94
822.00	200.07
823.00	198.99
824.00	194.65
825.00	207.91
826.00	201.28
827.00	199.35
828.00	196.99
829.00	198.16
830.00	201.12
831.00	196.15
832.00	198.16
833.00	201.77
834.00	196.08
835.00	196.75
836.00	200.79
837.00	202.02
838.00	196.82
839.00	198.12
840.00	201.23
841.00	199.04
842.00	200.24
843.00	202.78
844.00	198.98
845.00	197.15
846.00	199.33
847.00	199.39
848.00	198.34
849.00	198.24
850.00	195.83
851.00	198.02
852.00	199.73
853.00	201.78
854.00	199.97
855.00	198.14
856.00	205.75
857.00	198.36
858.00	202.06
859.00	197.09
860.00	194.58
861.00	201.98
862.00	194.98
863.00	193.46
864.00	204.48
865.00	203.05
866.00	198.93
867.00	204.75
868.00	201.05
869.00	198.09
870.00	194.82
871.00	196.96
872.00	203.76
873.00	198.15
874.00	195.11
875.00	196.55
876.00	194.93
877.00	199.64
878.00	197.20
879.00	192.99
880.00	200.89
881.00	197.62
882.00	199.20
883.00	203.18
884.00	194.00
885.00	197.81
886.00	193.90
887.00	196.53
888.00	198.01
889.00	198.07
890.00	201.87
891.00	200.91
892.00	199.24
893.00	197.91
894.00	200.88
895.00	200.79
896.00	200.83
897.00	198.23
898.00	197.16
899.00	197.46
900.00	203.09
901.00	196.62
902.00	196.56
903.00	201.63
904.00	197.26
905.00	197.92
906.00	201.79
907.00	197.13
908.00	204.43
909.00	197.99
910.00	197.05
911.00	200.96
912.00	197.26
913.00	198.09
914.00	200.38
915.00	200.16
916.00	196.05
917.00	196.28
918.00	201.66
919.00	197.64
920.00	198.17
921.00	196.17
922.00	196.51
923.00	201.00
924.00	197.02
925.00	197.21
926.00	199.01
927.00	199.23
928.00	199.28
929.00	197.91
930.00	200.65
931.00	197.87
932.00	194.74
933.00	200.43
934.00	193.02
935.00	197.74
936.00	198.17
937.00	204.42
938.00	194.47
939.00	200.46
940.00	196.39
941.00	196.21
942.00	202.09
943.00	198.24
944.00	199.82
945.00	202.35
946.00	200.15
947.00	202.13
948.00	196.70
949.00	200.57
950.00	199.22
951.00	198.38
952.00	195.06
953.00	194.31
954.00	201.01
955.00	201.00
956.00	198.68
957.00	203.07
958.00	195.44
959.00	199.95
960.00	197.07
961.00	200.80
962.00	199.20
963.00	201.07
964.00	193.85
965.00	199.84
966.00	195.08
967.00	197.63
968.00	198.99
969.00	198.75
970.00	197.69
971.00	199.89
972.00	198.54
973.00	200.76
974.00	199.43
975.00	198.64
976.00	197.07
977.00	194.36
978.00	197.72
979.00	200.24
980.00	196.74
981.00	195.02
982.00	201.47
983.00	202.64
984.00	200.03
985.00	200.57
986.00	200.29
987.00	198.64
988.00	202.31
989.00	201.59
990.00	195.12
991.00	192.32
992.00	196.60
993.00	197.41
994.00	203.63
995.00	198.44
996.00	195.27
997.00	200.22
998.00	203.04
999.00	198.05
1000.00	200.18
>>>>>End Processed Spectral Data<<<<<
