SpectraSuite Data File
++++++++++++++++++++++++++++++++++++
Date: Thu Oct 13 14:59:44 CDT 2011
User: Helimak
Dark Spectrum Present: No
Reference Spectrum Present: No
Number of Sampled Component Spectra: 1
Spectrometers: USB2G37154
Integration Time (usec): 200000 (USB2G37154)
Spectra Averaged: 1 (USB2G37154)
Boxcar Smoothing: 0 (USB2G37154)
Correct for Electrical Dark: No (USB2G37154)
Strobe/Lamp Enabled: No (USB2G37154)
Correct for Detector Non-linearity: No (USB2G37154)
Correct for Stray Light: No (USB2G37154)
Number of Pixels in Processed Spectrum: 651
>>>>>Begin Processed Spectral Data<<<<<
350.00	199.81
351.00	197.40
352.00	197.36
353.00	197.47
354.00	195.26
355.00	195.42
356.00	197.30
357.00	198.27
358.00	196.04
359.00	198.31
360.00	195.29
361.00	197.63
362.00	199.56
363.00	196.61
364.00	195.70
365.00	196.46
366.00	197.54
367.00	201.08
368.00	197.23
369.00	197.34
370.00	198.02
371.00	200.77
372.00	199.47
373.00	201.89
374.00	199.93
375.00	203.66
376.00	199.84
377.00	201.41
378.00	203.09
379.00	194.37
380.00	201.53
381.00	200.40
382.00	196.64
383.00	198.75
384.00	199.09
385.00	196.09
386.00	196.98
387.00	199.18
388.00	198.75
389.00	198.85
390.00	197.54
391.00	199.98
392.00	197.39
393.00	201.65
394.00	203.42
395.00	198.35
396.00	194.95
397.00	198.25
398.00	198.02
399.00	198.98
400.00	200.77
401.00	197.28
402.00	199.75
403.00	197.18
404.00	199.02
405.00	204.38
406.00	201.99
407.00	202.40
408.00	197.65
409.00	198.97
410.00	198.27
411.00	200.41
412.00	198.13
413.00	203.04
414.00	199.63
415.00	199.29
416.00	203.25
417.00	204.95
418.00	199.54
419.00	202.70
420.00	203.04
421.00	198.73
422.00	200.17
423.00	202.44
424.00	198.41
425.00	200.00
426.00	201.77
427.00	209.85
428.00	200.65
429.00	202.26
430.00	199.10
431.00	198.30
432.00	205.39
433.00	204.47
434.00	202.27
435.00	202.40
436.00	201.58
437.00	211.56
438.00	199.21
439.00	201.28
440.00	201.36
441.00	203.46
442.00	200.02
443.00	200.56
444.00	197.49
445.00	197.87
446.00	201.30
447.00	197.68
448.00	200.55
449.00	198.04
450.00	201.08
451.00	197.90
452.00	201.42
453.00	198.96
454.00	198.89
455.00	198.84
456.00	202.52
457.00	204.08
458.00	201.31
459.00	201.37
460.00	201.78
461.00	202.30
462.00	199.18
463.00	197.48
464.00	197.78
465.00	206.85
466.00	206.63
467.00	202.19
468.00	194.41
469.00	196.45
470.00	197.81
471.00	198.01
472.00	201.80
473.00	199.22
474.00	199.95
475.00	197.02
476.00	202.19
477.00	197.41
478.00	199.65
479.00	201.19
480.00	201.15
481.00	201.02
482.00	202.15
483.00	201.60
484.00	198.69
485.00	197.26
486.00	198.46
487.00	199.64
488.00	199.34
489.00	200.94
490.00	204.55
491.00	201.15
492.00	198.01
493.00	201.09
494.00	204.51
495.00	198.20
496.00	200.39
497.00	200.97
498.00	198.34
499.00	201.65
500.00	200.49
501.00	200.61
502.00	201.00
503.00	202.03
504.00	199.95
505.00	200.48
506.00	198.75
507.00	198.33
508.00	202.39
509.00	202.17
510.00	197.84
511.00	195.05
512.00	200.44
513.00	198.02
514.00	200.19
515.00	196.70
516.00	196.23
517.00	198.67
518.00	199.90
519.00	200.11
520.00	204.79
521.00	197.84
522.00	200.28
523.00	199.96
524.00	199.26
525.00	200.03
526.00	202.82
527.00	198.03
528.00	204.19
529.00	202.34
530.00	198.93
531.00	197.31
532.00	201.48
533.00	199.92
534.00	198.78
535.00	197.02
536.00	199.67
537.00	201.20
538.00	200.71
539.00	198.02
540.00	203.88
541.00	201.63
542.00	196.87
543.00	199.40
544.00	202.55
545.00	199.83
546.00	198.87
547.00	202.39
548.00	198.98
549.00	196.17
550.00	195.18
551.00	198.98
552.00	200.97
553.00	198.81
554.00	195.99
555.00	200.12
556.00	199.43
557.00	198.12
558.00	197.23
559.00	196.60
560.00	204.34
561.00	201.75
562.00	203.10
563.00	202.08
564.00	200.29
565.00	200.07
566.00	200.33
567.00	201.69
568.00	196.94
569.00	201.14
570.00	206.65
571.00	213.10
572.00	198.75
573.00	205.07
574.00	204.76
575.00	199.30
576.00	198.77
577.00	196.63
578.00	199.25
579.00	201.31
580.00	197.22
581.00	196.15
582.00	200.34
583.00	202.01
584.00	201.53
585.00	199.59
586.00	200.51
587.00	194.07
588.00	199.60
589.00	198.56
590.00	199.19
591.00	202.50
592.00	199.67
593.00	195.05
594.00	197.04
595.00	200.01
596.00	194.91
597.00	198.80
598.00	202.61
599.00	196.71
600.00	193.22
601.00	199.16
602.00	196.20
603.00	196.22
604.00	196.21
605.00	199.27
606.00	197.22
607.00	196.72
608.00	198.01
609.00	199.01
610.00	197.38
611.00	195.83
612.00	199.38
613.00	198.57
614.00	197.59
615.00	199.77
616.00	204.55
617.00	197.99
618.00	202.12
619.00	213.44
620.00	201.66
621.00	205.56
622.00	198.71
623.00	199.73
624.00	199.08
625.00	198.84
626.00	200.92
627.00	197.00
628.00	200.46
629.00	202.49
630.00	197.62
631.00	199.32
632.00	195.13
633.00	200.02
634.00	199.77
635.00	198.85
636.00	199.28
637.00	197.36
638.00	201.93
639.00	201.61
640.00	204.71
641.00	200.39
642.00	202.60
643.00	199.50
644.00	200.34
645.00	201.25
646.00	197.94
647.00	205.44
648.00	200.04
649.00	198.50
650.00	192.66
651.00	199.41
652.00	198.78
653.00	200.05
654.00	202.21
655.00	202.52
656.00	198.78
657.00	202.85
658.00	197.00
659.00	200.79
660.00	203.40
661.00	199.98
662.00	194.23
663.00	200.94
664.00	205.41
665.00	199.76
666.00	196.66
667.00	202.19
668.00	206.32
669.00	200.76
670.00	197.94
671.00	199.95
672.00	197.97
673.00	201.94
674.00	204.28
675.00	200.29
676.00	198.95
677.00	197.83
678.00	198.83
679.00	197.14
680.00	196.25
681.00	203.11
682.00	203.50
683.00	198.16
684.00	205.83
685.00	208.26
686.00	197.86
687.00	198.97
688.00	197.32
689.00	201.55
690.00	198.76
691.00	201.03
692.00	197.27
693.00	196.23
694.00	198.87
695.00	198.82
696.00	198.00
697.00	198.96
698.00	198.72
699.00	196.88
700.00	196.48
701.00	201.06
702.00	198.60
703.00	197.76
704.00	198.55
705.00	201.50
706.00	198.33
707.00	199.44
708.00	196.79
709.00	204.27
710.00	199.18
711.00	195.88
712.00	195.83
713.00	195.18
714.00	194.64
715.00	196.62
716.00	196.13
717.00	199.68
718.00	199.78
719.00	193.88
720.00	203.09
721.00	198.04
722.00	200.41
723.00	200.94
724.00	200.31
725.00	216.86
726.00	195.35
727.00	197.27
728.00	200.78
729.00	196.79
730.00	198.05
731.00	201.24
732.00	203.79
733.00	198.55
734.00	196.23
735.00	194.89
736.00	200.72
737.00	197.97
738.00	200.04
739.00	199.98
740.00	197.87
741.00	198.98
742.00	198.98
743.00	199.02
744.00	195.06
745.00	212.61
746.00	195.89
747.00	197.94
748.00	197.05
749.00	196.36
750.00	196.95
751.00	199.36
752.00	192.91
753.00	197.95
754.00	198.58
755.00	201.83
756.00	199.69
757.00	198.49
758.00	201.51
759.00	199.82
760.00	198.80
761.00	197.57
762.00	203.42
763.00	201.79
764.00	195.03
765.00	198.84
766.00	198.31
767.00	198.73
768.00	196.63
769.00	198.70
770.00	201.56
771.00	200.10
772.00	196.56
773.00	198.65
774.00	192.73
775.00	202.17
776.00	199.53
777.00	196.06
778.00	194.99
779.00	201.34
780.00	197.83
781.00	197.72
782.00	198.36
783.00	198.35
784.00	196.25
785.00	196.46
786.00	196.83
787.00	201.28
788.00	197.98
789.00	203.04
790.00	198.75
791.00	197.33
792.00	198.81
793.00	198.06
794.00	199.42
795.00	194.56
796.00	197.38
797.00	194.38
798.00	205.09
799.00	199.80
800.00	194.21
801.00	199.49
802.00	200.92
803.00	201.03
804.00	193.62
805.00	199.24
806.00	200.26
807.00	195.86
808.00	202.08
809.00	197.30
810.00	199.23
811.00	198.88
812.00	199.68
813.00	199.72
814.00	202.06
815.00	201.08
816.00	196.60
817.00	199.45
818.00	198.96
819.00	203.07
820.00	198.86
821.00	199.04
822.00	201.96
823.00	199.42
824.00	193.96
825.00	208.02
826.00	198.97
827.00	198.31
828.00	200.90
829.00	204.99
830.00	201.43
831.00	199.19
832.00	199.05
833.00	201.81
834.00	200.71
835.00	200.11
836.00	201.17
837.00	200.27
838.00	199.44
839.00	203.11
840.00	200.42
841.00	195.37
842.00	199.92
843.00	200.23
844.00	196.13
845.00	199.13
846.00	198.21
847.00	201.19
848.00	196.92
849.00	200.97
850.00	199.82
851.00	199.74
852.00	198.69
853.00	199.86
854.00	197.37
855.00	202.38
856.00	202.65
857.00	197.94
858.00	200.28
859.00	198.03
860.00	199.42
861.00	201.89
862.00	199.28
863.00	199.17
864.00	201.09
865.00	203.09
866.00	198.51
867.00	197.83
868.00	203.02
869.00	197.74
870.00	197.22
871.00	200.54
872.00	200.11
873.00	202.02
874.00	193.42
875.00	193.32
876.00	204.96
877.00	200.67
878.00	199.28
879.00	200.24
880.00	200.17
881.00	201.27
882.00	200.05
883.00	203.63
884.00	197.00
885.00	196.74
886.00	198.71
887.00	202.01
888.00	198.86
889.00	197.36
890.00	201.78
891.00	202.18
892.00	201.28
893.00	197.84
894.00	197.41
895.00	201.66
896.00	198.24
897.00	196.83
898.00	201.80
899.00	196.98
900.00	199.34
901.00	198.88
902.00	195.36
903.00	207.62
904.00	201.36
905.00	200.93
906.00	200.48
907.00	202.85
908.00	198.56
909.00	192.81
910.00	197.13
911.00	199.98
912.00	198.91
913.00	196.41
914.00	198.84
915.00	199.70
916.00	198.65
917.00	198.59
918.00	201.14
919.00	202.88
920.00	196.92
921.00	200.68
922.00	198.26
923.00	202.18
924.00	197.01
925.00	199.96
926.00	196.00
927.00	198.76
928.00	196.37
929.00	202.67
930.00	202.65
931.00	197.65
932.00	196.50
933.00	203.31
934.00	200.01
935.00	198.20
936.00	196.96
937.00	196.87
938.00	203.79
939.00	200.43
940.00	193.45
941.00	197.94
942.00	201.95
943.00	202.90
944.00	198.98
945.00	205.97
946.00	197.86
947.00	201.98
948.00	196.51
949.00	200.86
950.00	197.30
951.00	197.00
952.00	198.98
953.00	199.44
954.00	199.20
955.00	201.77
956.00	201.15
957.00	195.64
958.00	200.42
959.00	197.91
960.00	200.85
961.00	196.45
962.00	198.75
963.00	199.70
964.00	197.47
965.00	200.20
966.00	200.15
967.00	198.58
968.00	196.95
969.00	192.68
970.00	197.58
971.00	197.58
972.00	203.00
973.00	197.60
974.00	194.14
975.00	199.44
976.00	199.97
977.00	198.72
978.00	202.30
979.00	200.32
980.00	199.55
981.00	196.00
982.00	202.57
983.00	207.18
984.00	196.27
985.00	199.82
986.00	195.43
987.00	200.90
988.00	202.49
989.00	201.78
990.00	198.06
991.00	201.76
992.00	200.34
993.00	198.19
994.00	198.83
995.00	198.23
996.00	199.05
997.00	192.68
998.00	204.08
999.00	200.03
1000.00	199.93
>>>>>End Processed Spectral Data<<<<<
