SpectraSuite Data File
++++++++++++++++++++++++++++++++++++
Date: Thu Oct 13 15:03:28 CDT 2011
User: Helimak
Dark Spectrum Present: No
Reference Spectrum Present: No
Number of Sampled Component Spectra: 1
Spectrometers: USB2G37154
Integration Time (usec): 500000 (USB2G37154)
Spectra Averaged: 1 (USB2G37154)
Boxcar Smoothing: 0 (USB2G37154)
Correct for Electrical Dark: No (USB2G37154)
Strobe/Lamp Enabled: No (USB2G37154)
Correct for Detector Non-linearity: No (USB2G37154)
Correct for Stray Light: No (USB2G37154)
Number of Pixels in Processed Spectrum: 651
>>>>>Begin Processed Spectral Data<<<<<
350.00	195.07
351.00	202.86
352.00	199.94
353.00	198.44
354.00	202.23
355.00	201.35
356.00	199.20
357.00	195.96
358.00	202.70
359.00	197.16
360.00	198.77
361.00	198.43
362.00	208.19
363.00	198.23
364.00	207.07
365.00	201.32
366.00	199.83
367.00	195.86
368.00	196.72
369.00	202.43
370.00	203.08
371.00	198.75
372.00	203.21
373.00	200.98
374.00	204.80
375.00	212.64
376.00	201.11
377.00	201.78
378.00	213.80
379.00	200.40
380.00	199.42
381.00	201.97
382.00	202.82
383.00	209.53
384.00	202.64
385.00	193.81
386.00	195.96
387.00	202.28
388.00	196.82
389.00	201.42
390.00	199.86
391.00	201.25
392.00	201.63
393.00	196.44
394.00	200.17
395.00	201.34
396.00	203.99
397.00	201.27
398.00	201.39
399.00	203.24
400.00	198.13
401.00	198.36
402.00	198.50
403.00	203.34
404.00	197.95
405.00	203.23
406.00	203.00
407.00	200.22
408.00	198.10
409.00	205.14
410.00	198.84
411.00	200.37
412.00	206.08
413.00	200.78
414.00	200.04
415.00	207.80
416.00	201.70
417.00	203.75
418.00	204.93
419.00	201.76
420.00	209.14
421.00	200.32
422.00	202.07
423.00	200.31
424.00	201.02
425.00	202.04
426.00	199.25
427.00	210.09
428.00	204.04
429.00	201.66
430.00	207.89
431.00	197.43
432.00	214.11
433.00	207.33
434.00	203.56
435.00	201.47
436.00	209.76
437.00	224.07
438.00	203.32
439.00	203.35
440.00	203.04
441.00	206.27
442.00	202.62
443.00	204.18
444.00	200.95
445.00	204.97
446.00	206.73
447.00	200.72
448.00	206.14
449.00	201.06
450.00	199.07
451.00	207.38
452.00	200.95
453.00	204.75
454.00	203.39
455.00	205.02
456.00	205.73
457.00	205.99
458.00	201.58
459.00	200.61
460.00	202.04
461.00	202.60
462.00	205.02
463.00	202.48
464.00	203.33
465.00	213.37
466.00	219.23
467.00	203.08
468.00	201.24
469.00	201.41
470.00	202.56
471.00	204.68
472.00	203.62
473.00	202.07
474.00	209.95
475.00	203.53
476.00	204.18
477.00	201.07
478.00	196.02
479.00	200.58
480.00	204.58
481.00	203.37
482.00	202.78
483.00	199.64
484.00	200.10
485.00	203.86
486.00	199.43
487.00	198.84
488.00	201.35
489.00	202.03
490.00	206.58
491.00	200.60
492.00	207.62
493.00	203.05
494.00	204.67
495.00	201.50
496.00	204.16
497.00	198.59
498.00	198.89
499.00	200.18
500.00	197.87
501.00	202.02
502.00	206.00
503.00	197.77
504.00	204.31
505.00	202.00
506.00	206.06
507.00	207.80
508.00	201.92
509.00	202.38
510.00	206.64
511.00	205.02
512.00	201.76
513.00	201.49
514.00	199.63
515.00	201.83
516.00	201.06
517.00	199.31
518.00	199.50
519.00	200.64
520.00	203.74
521.00	202.93
522.00	202.65
523.00	198.06
524.00	197.28
525.00	203.11
526.00	211.00
527.00	203.55
528.00	204.25
529.00	207.89
530.00	199.73
531.00	196.39
532.00	199.40
533.00	199.20
534.00	200.18
535.00	198.03
536.00	202.25
537.00	198.29
538.00	201.59
539.00	201.62
540.00	199.56
541.00	195.49
542.00	201.67
543.00	206.01
544.00	201.90
545.00	197.69
546.00	203.68
547.00	211.42
548.00	201.08
549.00	195.12
550.00	198.53
551.00	200.05
552.00	196.72
553.00	200.49
554.00	206.09
555.00	203.48
556.00	200.36
557.00	195.84
558.00	200.89
559.00	199.38
560.00	206.57
561.00	205.04
562.00	198.03
563.00	199.81
564.00	197.80
565.00	202.76
566.00	201.42
567.00	198.56
568.00	204.03
569.00	194.49
570.00	216.46
571.00	228.96
572.00	202.83
573.00	210.37
574.00	214.09
575.00	199.50
576.00	200.22
577.00	201.41
578.00	198.52
579.00	202.25
580.00	198.52
581.00	201.16
582.00	202.10
583.00	199.89
584.00	203.68
585.00	200.29
586.00	206.21
587.00	200.10
588.00	201.20
589.00	198.02
590.00	201.73
591.00	202.66
592.00	199.94
593.00	201.27
594.00	202.10
595.00	194.19
596.00	198.66
597.00	201.91
598.00	203.46
599.00	205.70
600.00	198.33
601.00	202.26
602.00	199.56
603.00	204.59
604.00	198.95
605.00	202.74
606.00	203.22
607.00	199.05
608.00	197.09
609.00	200.99
610.00	196.95
611.00	201.71
612.00	201.52
613.00	207.79
614.00	198.90
615.00	197.89
616.00	195.33
617.00	200.99
618.00	218.77
619.00	239.33
620.00	202.14
621.00	208.10
622.00	200.07
623.00	199.67
624.00	201.44
625.00	204.02
626.00	198.01
627.00	202.02
628.00	203.51
629.00	209.57
630.00	198.71
631.00	198.80
632.00	197.01
633.00	200.44
634.00	198.23
635.00	204.03
636.00	206.55
637.00	203.14
638.00	195.96
639.00	199.05
640.00	214.32
641.00	200.10
642.00	199.51
643.00	196.49
644.00	200.55
645.00	194.90
646.00	203.07
647.00	203.82
648.00	198.39
649.00	201.06
650.00	198.43
651.00	195.42
652.00	200.47
653.00	199.03
654.00	202.53
655.00	200.43
656.00	200.94
657.00	200.03
658.00	202.00
659.00	201.85
660.00	205.57
661.00	200.01
662.00	201.37
663.00	197.10
664.00	215.23
665.00	203.40
666.00	201.53
667.00	205.58
668.00	212.52
669.00	201.61
670.00	198.98
671.00	204.38
672.00	200.17
673.00	203.01
674.00	199.06
675.00	197.06
676.00	203.06
677.00	203.08
678.00	200.33
679.00	201.10
680.00	202.35
681.00	215.84
682.00	213.89
683.00	198.47
684.00	217.12
685.00	217.52
686.00	199.69
687.00	199.13
688.00	200.51
689.00	201.32
690.00	201.44
691.00	202.92
692.00	199.35
693.00	196.29
694.00	198.43
695.00	197.91
696.00	203.00
697.00	208.99
698.00	199.62
699.00	203.77
700.00	201.58
701.00	198.26
702.00	197.57
703.00	197.07
704.00	203.61
705.00	202.37
706.00	198.97
707.00	200.36
708.00	198.69
709.00	203.69
710.00	202.03
711.00	199.15
712.00	198.31
713.00	196.35
714.00	200.90
715.00	201.85
716.00	195.35
717.00	199.77
718.00	200.02
719.00	197.99
720.00	200.65
721.00	197.69
722.00	202.05
723.00	204.04
724.00	203.05
725.00	254.17
726.00	192.57
727.00	197.59
728.00	203.93
729.00	198.13
730.00	196.90
731.00	203.52
732.00	199.08
733.00	201.59
734.00	203.05
735.00	199.27
736.00	199.78
737.00	201.58
738.00	198.44
739.00	207.07
740.00	205.81
741.00	200.59
742.00	203.02
743.00	199.94
744.00	197.96
745.00	223.14
746.00	193.90
747.00	199.32
748.00	199.19
749.00	200.69
750.00	200.93
751.00	201.37
752.00	196.49
753.00	198.12
754.00	202.38
755.00	199.79
756.00	200.29
757.00	199.77
758.00	209.04
759.00	208.71
760.00	206.83
761.00	195.92
762.00	203.77
763.00	217.81
764.00	198.00
765.00	199.98
766.00	193.58
767.00	201.78
768.00	204.63
769.00	201.62
770.00	198.91
771.00	204.09
772.00	197.54
773.00	198.73
774.00	200.24
775.00	212.89
776.00	197.12
777.00	203.18
778.00	202.02
779.00	214.89
780.00	200.74
781.00	197.77
782.00	200.74
783.00	199.42
784.00	199.18
785.00	200.59
786.00	203.79
787.00	204.06
788.00	196.84
789.00	210.04
790.00	196.97
791.00	203.19
792.00	196.83
793.00	199.39
794.00	197.42
795.00	196.90
796.00	197.75
797.00	198.28
798.00	203.91
799.00	197.99
800.00	202.97
801.00	194.42
802.00	199.39
803.00	207.64
804.00	196.26
805.00	197.90
806.00	205.26
807.00	199.54
808.00	206.38
809.00	210.20
810.00	202.36
811.00	200.82
812.00	201.03
813.00	201.79
814.00	202.22
815.00	204.27
816.00	194.46
817.00	211.81
818.00	201.54
819.00	202.42
820.00	202.94
821.00	194.83
822.00	201.57
823.00	202.43
824.00	194.55
825.00	217.66
826.00	205.41
827.00	198.05
828.00	193.91
829.00	200.75
830.00	196.03
831.00	204.07
832.00	199.53
833.00	202.18
834.00	196.29
835.00	202.87
836.00	203.55
837.00	203.73
838.00	202.35
839.00	198.00
840.00	203.52
841.00	199.95
842.00	200.66
843.00	208.84
844.00	198.06
845.00	199.60
846.00	200.94
847.00	205.15
848.00	204.11
849.00	197.13
850.00	196.90
851.00	196.15
852.00	202.17
853.00	200.19
854.00	202.07
855.00	200.90
856.00	222.10
857.00	204.66
858.00	208.28
859.00	196.33
860.00	197.14
861.00	208.87
862.00	198.46
863.00	201.84
864.00	209.24
865.00	204.75
866.00	197.55
867.00	198.67
868.00	205.97
869.00	202.45
870.00	196.67
871.00	198.17
872.00	200.80
873.00	202.38
874.00	197.13
875.00	201.42
876.00	197.62
877.00	196.81
878.00	197.63
879.00	200.43
880.00	200.79
881.00	195.93
882.00	199.93
883.00	202.74
884.00	197.00
885.00	198.59
886.00	200.58
887.00	205.77
888.00	199.81
889.00	197.46
890.00	202.95
891.00	206.08
892.00	203.41
893.00	201.07
894.00	195.18
895.00	213.58
896.00	199.75
897.00	199.79
898.00	197.17
899.00	197.07
900.00	202.92
901.00	197.42
902.00	198.26
903.00	210.70
904.00	194.93
905.00	199.18
906.00	208.56
907.00	203.26
908.00	200.15
909.00	195.10
910.00	199.51
911.00	200.56
912.00	204.74
913.00	201.01
914.00	203.49
915.00	204.18
916.00	202.17
917.00	204.27
918.00	198.36
919.00	202.81
920.00	204.09
921.00	205.49
922.00	199.41
923.00	202.28
924.00	198.13
925.00	202.61
926.00	196.00
927.00	200.08
928.00	198.11
929.00	200.06
930.00	196.42
931.00	195.20
932.00	200.89
933.00	202.69
934.00	199.22
935.00	196.44
936.00	196.93
937.00	195.16
938.00	201.92
939.00	204.99
940.00	196.61
941.00	201.99
942.00	209.89
943.00	202.02
944.00	199.33
945.00	215.90
946.00	201.26
947.00	200.18
948.00	199.57
949.00	198.27
950.00	199.54
951.00	196.75
952.00	198.01
953.00	199.48
954.00	194.35
955.00	205.70
956.00	200.08
957.00	205.45
958.00	199.24
959.00	197.89
960.00	197.60
961.00	195.39
962.00	200.42
963.00	201.83
964.00	203.39
965.00	200.22
966.00	203.16
967.00	209.90
968.00	203.96
969.00	199.29
970.00	200.44
971.00	201.06
972.00	204.78
973.00	207.27
974.00	202.11
975.00	202.10
976.00	204.44
977.00	198.41
978.00	200.64
979.00	206.46
980.00	197.78
981.00	196.55
982.00	201.83
983.00	206.12
984.00	201.16
985.00	203.52
986.00	200.92
987.00	198.61
988.00	205.09
989.00	200.69
990.00	201.56
991.00	199.91
992.00	200.57
993.00	207.34
994.00	203.21
995.00	195.81
996.00	199.56
997.00	201.83
998.00	202.02
999.00	202.39
1000.00	200.30
>>>>>End Processed Spectral Data<<<<<
