SpectraSuite Data File
++++++++++++++++++++++++++++++++++++
Date: Thu Oct 13 14:59:43 CDT 2011
User: Helimak
Dark Spectrum Present: No
Reference Spectrum Present: No
Number of Sampled Component Spectra: 1
Spectrometers: USB2G37154
Integration Time (usec): 200000 (USB2G37154)
Spectra Averaged: 1 (USB2G37154)
Boxcar Smoothing: 0 (USB2G37154)
Correct for Electrical Dark: No (USB2G37154)
Strobe/Lamp Enabled: No (USB2G37154)
Correct for Detector Non-linearity: No (USB2G37154)
Correct for Stray Light: No (USB2G37154)
Number of Pixels in Processed Spectrum: 651
>>>>>Begin Processed Spectral Data<<<<<
350.00	194.06
351.00	201.29
352.00	200.11
353.00	200.97
354.00	196.65
355.00	202.55
356.00	198.13
357.00	196.61
358.00	196.32
359.00	197.37
360.00	199.34
361.00	203.69
362.00	202.14
363.00	195.74
364.00	200.90
365.00	201.64
366.00	198.31
367.00	199.95
368.00	200.63
369.00	200.62
370.00	201.01
371.00	198.74
372.00	199.40
373.00	199.80
374.00	200.16
375.00	205.97
376.00	199.48
377.00	199.47
378.00	202.31
379.00	197.24
380.00	197.90
381.00	200.71
382.00	199.73
383.00	198.70
384.00	198.74
385.00	200.49
386.00	198.92
387.00	203.56
388.00	200.64
389.00	196.53
390.00	202.72
391.00	201.00
392.00	202.94
393.00	199.33
394.00	203.65
395.00	199.49
396.00	203.04
397.00	202.22
398.00	199.95
399.00	200.45
400.00	196.90
401.00	200.48
402.00	197.73
403.00	198.76
404.00	203.28
405.00	199.18
406.00	200.00
407.00	199.88
408.00	204.01
409.00	198.18
410.00	200.25
411.00	197.38
412.00	199.61
413.00	199.00
414.00	198.99
415.00	201.78
416.00	200.89
417.00	202.16
418.00	202.88
419.00	196.82
420.00	203.26
421.00	198.94
422.00	202.62
423.00	200.59
424.00	202.65
425.00	203.24
426.00	201.12
427.00	205.08
428.00	204.54
429.00	198.71
430.00	201.15
431.00	199.56
432.00	207.66
433.00	201.97
434.00	200.12
435.00	200.93
436.00	202.98
437.00	205.81
438.00	201.85
439.00	199.14
440.00	201.19
441.00	199.93
442.00	198.35
443.00	199.62
444.00	201.88
445.00	201.00
446.00	201.55
447.00	203.81
448.00	201.97
449.00	202.96
450.00	198.84
451.00	200.57
452.00	199.88
453.00	199.40
454.00	197.63
455.00	196.96
456.00	202.71
457.00	199.24
458.00	201.13
459.00	200.73
460.00	200.52
461.00	199.61
462.00	203.65
463.00	199.32
464.00	202.32
465.00	206.27
466.00	206.79
467.00	200.60
468.00	199.27
469.00	198.73
470.00	198.34
471.00	197.34
472.00	202.74
473.00	199.31
474.00	200.12
475.00	201.15
476.00	200.07
477.00	198.89
478.00	202.70
479.00	198.04
480.00	199.24
481.00	201.80
482.00	199.89
483.00	202.18
484.00	199.40
485.00	200.10
486.00	198.92
487.00	198.86
488.00	197.96
489.00	200.02
490.00	199.28
491.00	199.21
492.00	200.85
493.00	201.25
494.00	196.12
495.00	201.56
496.00	202.14
497.00	197.41
498.00	193.11
499.00	198.29
500.00	198.82
501.00	205.35
502.00	202.00
503.00	199.25
504.00	197.41
505.00	197.07
506.00	200.76
507.00	207.47
508.00	198.90
509.00	199.58
510.00	201.50
511.00	202.05
512.00	203.08
513.00	198.37
514.00	196.52
515.00	201.50
516.00	200.11
517.00	198.25
518.00	200.01
519.00	196.55
520.00	199.83
521.00	199.76
522.00	200.64
523.00	201.31
524.00	198.28
525.00	197.13
526.00	205.54
527.00	199.80
528.00	198.65
529.00	199.22
530.00	199.87
531.00	198.28
532.00	198.64
533.00	199.07
534.00	202.12
535.00	199.84
536.00	201.93
537.00	202.92
538.00	199.57
539.00	195.53
540.00	198.82
541.00	197.76
542.00	197.04
543.00	200.95
544.00	203.46
545.00	198.82
546.00	200.04
547.00	202.21
548.00	200.99
549.00	196.41
550.00	199.38
551.00	200.05
552.00	199.00
553.00	196.44
554.00	199.94
555.00	198.60
556.00	196.56
557.00	198.88
558.00	200.17
559.00	198.29
560.00	205.69
561.00	198.17
562.00	194.85
563.00	196.35
564.00	197.98
565.00	200.36
566.00	202.09
567.00	200.57
568.00	201.03
569.00	199.51
570.00	206.59
571.00	209.97
572.00	200.73
573.00	207.28
574.00	202.87
575.00	196.79
576.00	201.43
577.00	202.86
578.00	200.37
579.00	198.53
580.00	196.05
581.00	196.15
582.00	198.27
583.00	197.01
584.00	202.59
585.00	199.34
586.00	200.21
587.00	202.02
588.00	198.05
589.00	197.50
590.00	199.75
591.00	198.02
592.00	197.41
593.00	201.91
594.00	199.03
595.00	198.29
596.00	197.39
597.00	198.61
598.00	200.78
599.00	201.89
600.00	200.07
601.00	201.19
602.00	197.91
603.00	202.69
604.00	200.21
605.00	202.01
606.00	202.01
607.00	198.68
608.00	198.63
609.00	202.01
610.00	201.30
611.00	198.57
612.00	199.49
613.00	202.31
614.00	200.85
615.00	200.96
616.00	199.97
617.00	201.99
618.00	204.81
619.00	222.00
620.00	195.54
621.00	200.75
622.00	197.59
623.00	196.68
624.00	198.27
625.00	198.74
626.00	201.02
627.00	197.63
628.00	195.17
629.00	199.36
630.00	196.00
631.00	202.14
632.00	197.75
633.00	194.52
634.00	200.67
635.00	200.03
636.00	201.46
637.00	196.68
638.00	196.80
639.00	196.05
640.00	201.86
641.00	199.63
642.00	200.64
643.00	198.99
644.00	201.13
645.00	198.00
646.00	206.98
647.00	201.03
648.00	198.43
649.00	200.28
650.00	197.44
651.00	197.78
652.00	198.36
653.00	195.66
654.00	199.42
655.00	196.02
656.00	193.24
657.00	207.29
658.00	199.00
659.00	199.97
660.00	201.37
661.00	199.26
662.00	196.00
663.00	196.21
664.00	209.02
665.00	200.69
666.00	200.12
667.00	202.10
668.00	203.74
669.00	195.72
670.00	196.46
671.00	198.97
672.00	199.18
673.00	198.02
674.00	196.28
675.00	197.80
676.00	197.05
677.00	197.51
678.00	198.28
679.00	198.85
680.00	201.02
681.00	204.74
682.00	205.81
683.00	200.20
684.00	204.16
685.00	202.08
686.00	197.30
687.00	196.39
688.00	197.02
689.00	198.94
690.00	195.67
691.00	204.00
692.00	198.09
693.00	195.51
694.00	198.20
695.00	200.11
696.00	198.00
697.00	206.99
698.00	201.91
699.00	199.85
700.00	198.01
701.00	198.20
702.00	196.18
703.00	196.25
704.00	200.60
705.00	198.94
706.00	201.66
707.00	201.20
708.00	195.44
709.00	201.85
710.00	197.48
711.00	199.98
712.00	199.89
713.00	196.56
714.00	200.87
715.00	200.08
716.00	198.27
717.00	197.60
718.00	199.41
719.00	196.62
720.00	198.57
721.00	195.40
722.00	196.27
723.00	199.40
724.00	196.64
725.00	215.65
726.00	198.59
727.00	197.55
728.00	197.79
729.00	202.48
730.00	201.43
731.00	198.13
732.00	200.10
733.00	200.05
734.00	200.99
735.00	197.71
736.00	198.96
737.00	198.86
738.00	196.02
739.00	201.51
740.00	197.95
741.00	198.76
742.00	199.97
743.00	200.94
744.00	195.75
745.00	204.77
746.00	194.96
747.00	198.22
748.00	197.33
749.00	200.86
750.00	200.65
751.00	201.79
752.00	194.27
753.00	197.24
754.00	203.27
755.00	198.44
756.00	201.70
757.00	200.08
758.00	201.96
759.00	202.53
760.00	199.90
761.00	199.79
762.00	198.85
763.00	204.94
764.00	199.03
765.00	196.87
766.00	200.91
767.00	198.11
768.00	198.99
769.00	197.97
770.00	195.09
771.00	199.45
772.00	196.11
773.00	194.83
774.00	198.29
775.00	203.40
776.00	201.08
777.00	195.91
778.00	197.01
779.00	204.08
780.00	196.74
781.00	197.04
782.00	200.02
783.00	200.01
784.00	197.99
785.00	197.45
786.00	199.04
787.00	200.36
788.00	200.51
789.00	206.03
790.00	201.15
791.00	199.68
792.00	197.92
793.00	198.74
794.00	197.92
795.00	197.91
796.00	195.74
797.00	193.70
798.00	203.08
799.00	199.13
800.00	201.42
801.00	195.65
802.00	197.35
803.00	203.95
804.00	197.58
805.00	192.42
806.00	198.45
807.00	196.95
808.00	197.73
809.00	202.30
810.00	199.95
811.00	196.30
812.00	199.26
813.00	196.39
814.00	198.13
815.00	198.21
816.00	198.57
817.00	205.01
818.00	200.26
819.00	201.71
820.00	195.68
821.00	198.07
822.00	201.27
823.00	198.91
824.00	196.74
825.00	204.87
826.00	201.75
827.00	198.25
828.00	195.92
829.00	198.44
830.00	198.46
831.00	202.49
832.00	195.03
833.00	199.85
834.00	204.10
835.00	199.92
836.00	201.56
837.00	198.16
838.00	193.12
839.00	197.94
840.00	200.03
841.00	199.62
842.00	198.25
843.00	200.50
844.00	196.38
845.00	199.95
846.00	199.63
847.00	198.65
848.00	197.31
849.00	198.50
850.00	196.90
851.00	202.37
852.00	202.43
853.00	203.13
854.00	198.53
855.00	198.05
856.00	207.43
857.00	201.77
858.00	199.83
859.00	199.22
860.00	197.35
861.00	202.74
862.00	199.35
863.00	194.69
864.00	200.83
865.00	196.79
866.00	199.75
867.00	199.72
868.00	199.96
869.00	201.26
870.00	202.34
871.00	199.63
872.00	198.04
873.00	198.29
874.00	199.51
875.00	200.19
876.00	195.28
877.00	197.85
878.00	200.20
879.00	198.35
880.00	196.90
881.00	197.04
882.00	194.31
883.00	199.38
884.00	194.99
885.00	201.37
886.00	195.10
887.00	198.09
888.00	198.14
889.00	196.85
890.00	197.93
891.00	202.78
892.00	202.10
893.00	201.47
894.00	197.08
895.00	201.71
896.00	197.57
897.00	199.18
898.00	198.25
899.00	200.82
900.00	198.57
901.00	200.04
902.00	196.55
903.00	202.51
904.00	198.45
905.00	200.15
906.00	199.66
907.00	196.91
908.00	200.51
909.00	192.77
910.00	193.84
911.00	197.66
912.00	195.90
913.00	198.65
914.00	200.15
915.00	198.70
916.00	199.86
917.00	197.21
918.00	201.81
919.00	199.01
920.00	195.29
921.00	200.03
922.00	194.71
923.00	202.92
924.00	199.04
925.00	202.79
926.00	197.01
927.00	196.43
928.00	196.25
929.00	198.33
930.00	199.13
931.00	196.16
932.00	193.47
933.00	198.18
934.00	201.15
935.00	195.85
936.00	192.97
937.00	200.82
938.00	203.75
939.00	196.15
940.00	197.96
941.00	195.54
942.00	200.03
943.00	196.31
944.00	194.59
945.00	206.50
946.00	198.98
947.00	199.04
948.00	196.43
949.00	198.36
950.00	203.20
951.00	198.96
952.00	198.03
953.00	199.90
954.00	198.94
955.00	201.90
956.00	200.60
957.00	200.00
958.00	196.85
959.00	201.99
960.00	199.73
961.00	206.45
962.00	202.39
963.00	196.57
964.00	198.70
965.00	195.91
966.00	195.20
967.00	201.68
968.00	197.97
969.00	199.06
970.00	198.73
971.00	198.12
972.00	199.62
973.00	204.25
974.00	196.97
975.00	196.30
976.00	201.83
977.00	194.85
978.00	197.49
979.00	201.85
980.00	197.60
981.00	199.54
982.00	196.27
983.00	202.50
984.00	198.21
985.00	201.47
986.00	196.33
987.00	197.06
988.00	198.38
989.00	195.80
990.00	197.02
991.00	195.57
992.00	202.04
993.00	196.57
994.00	198.08
995.00	195.64
996.00	198.57
997.00	200.54
998.00	198.41
999.00	201.00
1000.00	196.15
>>>>>End Processed Spectral Data<<<<<
