SpectraSuite Data File
++++++++++++++++++++++++++++++++++++
Date: Thu Oct 13 15:03:30 CDT 2011
User: Helimak
Dark Spectrum Present: No
Reference Spectrum Present: No
Number of Sampled Component Spectra: 1
Spectrometers: USB2G37154
Integration Time (usec): 500000 (USB2G37154)
Spectra Averaged: 1 (USB2G37154)
Boxcar Smoothing: 0 (USB2G37154)
Correct for Electrical Dark: No (USB2G37154)
Strobe/Lamp Enabled: No (USB2G37154)
Correct for Detector Non-linearity: No (USB2G37154)
Correct for Stray Light: No (USB2G37154)
Number of Pixels in Processed Spectrum: 651
>>>>>Begin Processed Spectral Data<<<<<
350.00	193.07
351.00	201.82
352.00	198.20
353.00	198.23
354.00	202.77
355.00	201.11
356.00	201.60
357.00	197.16
358.00	203.82
359.00	195.75
360.00	197.25
361.00	197.40
362.00	209.49
363.00	195.94
364.00	207.37
365.00	200.01
366.00	201.31
367.00	198.75
368.00	201.21
369.00	200.64
370.00	202.08
371.00	199.87
372.00	199.27
373.00	201.78
374.00	195.80
375.00	208.96
376.00	200.44
377.00	201.48
378.00	210.90
379.00	198.37
380.00	196.75
381.00	197.94
382.00	201.36
383.00	207.52
384.00	195.69
385.00	199.30
386.00	196.05
387.00	202.77
388.00	196.10
389.00	198.00
390.00	202.50
391.00	201.47
392.00	203.55
393.00	198.85
394.00	203.12
395.00	199.12
396.00	199.96
397.00	202.35
398.00	198.35
399.00	200.39
400.00	199.50
401.00	200.09
402.00	199.08
403.00	206.75
404.00	198.74
405.00	204.81
406.00	201.99
407.00	202.86
408.00	203.49
409.00	204.56
410.00	196.01
411.00	200.30
412.00	201.47
413.00	204.79
414.00	198.85
415.00	204.03
416.00	204.18
417.00	204.74
418.00	203.79
419.00	202.32
420.00	203.32
421.00	205.30
422.00	204.37
423.00	202.38
424.00	205.35
425.00	205.00
426.00	201.73
427.00	209.97
428.00	199.10
429.00	204.82
430.00	199.64
431.00	199.03
432.00	215.68
433.00	210.68
434.00	203.42
435.00	205.36
436.00	204.92
437.00	224.68
438.00	206.08
439.00	202.90
440.00	202.72
441.00	205.19
442.00	201.49
443.00	200.40
444.00	198.96
445.00	203.05
446.00	204.55
447.00	201.44
448.00	203.03
449.00	199.12
450.00	205.06
451.00	202.95
452.00	199.50
453.00	199.75
454.00	201.91
455.00	201.31
456.00	202.03
457.00	201.40
458.00	199.04
459.00	200.84
460.00	199.41
461.00	199.82
462.00	202.30
463.00	201.44
464.00	198.69
465.00	216.74
466.00	217.70
467.00	204.00
468.00	200.01
469.00	202.05
470.00	203.98
471.00	199.09
472.00	205.62
473.00	205.76
474.00	206.72
475.00	203.67
476.00	204.11
477.00	196.52
478.00	196.63
479.00	197.55
480.00	202.55
481.00	199.80
482.00	203.42
483.00	202.84
484.00	203.62
485.00	201.96
486.00	202.38
487.00	201.44
488.00	202.51
489.00	202.01
490.00	203.80
491.00	203.56
492.00	206.24
493.00	206.07
494.00	201.83
495.00	199.63
496.00	202.24
497.00	201.99
498.00	199.90
499.00	201.74
500.00	200.93
501.00	199.21
502.00	204.00
503.00	204.04
504.00	204.45
505.00	203.60
506.00	206.63
507.00	206.42
508.00	202.30
509.00	201.09
510.00	203.21
511.00	208.05
512.00	204.06
513.00	198.96
514.00	197.86
515.00	200.27
516.00	199.23
517.00	202.28
518.00	200.20
519.00	201.60
520.00	208.09
521.00	202.29
522.00	202.64
523.00	197.88
524.00	202.82
525.00	204.94
526.00	210.52
527.00	200.51
528.00	199.97
529.00	204.25
530.00	199.72
531.00	200.20
532.00	199.86
533.00	197.61
534.00	198.79
535.00	201.93
536.00	197.47
537.00	200.30
538.00	198.75
539.00	196.06
540.00	203.38
541.00	197.63
542.00	199.83
543.00	202.82
544.00	202.15
545.00	199.20
546.00	199.87
547.00	207.11
548.00	198.91
549.00	200.92
550.00	200.46
551.00	204.05
552.00	198.03
553.00	195.61
554.00	206.50
555.00	199.29
556.00	205.09
557.00	201.86
558.00	203.35
559.00	202.42
560.00	207.90
561.00	203.49
562.00	200.08
563.00	201.24
564.00	202.06
565.00	200.70
566.00	202.72
567.00	203.73
568.00	199.17
569.00	201.41
570.00	215.55
571.00	230.87
572.00	202.77
573.00	211.32
574.00	210.87
575.00	197.76
576.00	199.40
577.00	199.82
578.00	202.78
579.00	200.54
580.00	199.05
581.00	202.44
582.00	204.77
583.00	201.58
584.00	197.92
585.00	199.52
586.00	202.80
587.00	201.27
588.00	200.96
589.00	198.67
590.00	204.19
591.00	200.50
592.00	197.84
593.00	200.26
594.00	200.10
595.00	194.75
596.00	199.71
597.00	201.58
598.00	206.88
599.00	202.68
600.00	197.02
601.00	202.12
602.00	197.51
603.00	203.30
604.00	200.41
605.00	203.75
606.00	196.76
607.00	200.76
608.00	199.79
609.00	198.92
610.00	196.44
611.00	201.26
612.00	201.15
613.00	208.49
614.00	203.43
615.00	202.15
616.00	200.33
617.00	199.96
618.00	210.82
619.00	241.37
620.00	202.04
621.00	206.99
622.00	199.40
623.00	200.83
624.00	200.27
625.00	199.76
626.00	194.96
627.00	197.60
628.00	205.17
629.00	209.74
630.00	197.67
631.00	202.03
632.00	197.34
633.00	199.99
634.00	198.40
635.00	201.04
636.00	202.38
637.00	200.12
638.00	197.13
639.00	194.68
640.00	213.22
641.00	200.18
642.00	199.72
643.00	206.12
644.00	202.39
645.00	200.71
646.00	210.06
647.00	197.72
648.00	199.29
649.00	200.54
650.00	197.02
651.00	198.33
652.00	199.04
653.00	198.56
654.00	203.88
655.00	203.00
656.00	202.00
657.00	200.02
658.00	201.00
659.00	201.77
660.00	203.82
661.00	200.83
662.00	198.26
663.00	194.46
664.00	221.08
665.00	203.25
666.00	205.18
667.00	207.75
668.00	209.20
669.00	198.11
670.00	199.63
671.00	197.00
672.00	202.14
673.00	200.00
674.00	192.24
675.00	201.77
676.00	202.13
677.00	201.73
678.00	201.75
679.00	202.19
680.00	205.16
681.00	209.63
682.00	218.25
683.00	201.56
684.00	217.62
685.00	212.53
686.00	201.45
687.00	198.66
688.00	197.44
689.00	198.26
690.00	196.06
691.00	203.19
692.00	199.90
693.00	199.29
694.00	195.32
695.00	200.14
696.00	205.00
697.00	209.95
698.00	201.82
699.00	205.53
700.00	201.78
701.00	196.84
702.00	199.49
703.00	197.81
704.00	202.67
705.00	204.45
706.00	201.20
707.00	199.48
708.00	197.63
709.00	203.03
710.00	201.86
711.00	196.54
712.00	202.35
713.00	197.19
714.00	197.53
715.00	200.15
716.00	197.15
717.00	201.00
718.00	203.31
719.00	202.56
720.00	206.35
721.00	203.07
722.00	201.41
723.00	204.74
724.00	204.58
725.00	247.27
726.00	193.29
727.00	201.37
728.00	203.54
729.00	200.52
730.00	199.29
731.00	205.77
732.00	201.14
733.00	201.59
734.00	200.51
735.00	196.86
736.00	197.22
737.00	204.14
738.00	198.81
739.00	204.91
740.00	200.08
741.00	198.32
742.00	195.93
743.00	201.91
744.00	199.73
745.00	227.17
746.00	195.14
747.00	197.32
748.00	200.13
749.00	195.39
750.00	196.05
751.00	197.41
752.00	196.90
753.00	192.63
754.00	200.04
755.00	200.22
756.00	200.39
757.00	199.95
758.00	207.47
759.00	211.53
760.00	200.34
761.00	200.41
762.00	201.58
763.00	218.79
764.00	198.05
765.00	201.84
766.00	191.56
767.00	201.29
768.00	201.79
769.00	200.01
770.00	197.52
771.00	199.62
772.00	200.58
773.00	197.77
774.00	194.66
775.00	212.15
776.00	197.44
777.00	197.43
778.00	201.05
779.00	208.87
780.00	197.63
781.00	199.73
782.00	201.11
783.00	194.69
784.00	201.74
785.00	197.76
786.00	203.39
787.00	202.98
788.00	202.64
789.00	206.02
790.00	198.32
791.00	199.82
792.00	200.73
793.00	200.58
794.00	198.82
795.00	201.64
796.00	197.24
797.00	200.32
798.00	203.80
799.00	204.02
800.00	204.05
801.00	196.89
802.00	199.33
803.00	210.38
804.00	197.84
805.00	197.18
806.00	204.40
807.00	195.90
808.00	205.93
809.00	205.77
810.00	204.75
811.00	202.86
812.00	203.88
813.00	204.01
814.00	202.27
815.00	197.41
816.00	202.05
817.00	209.42
818.00	199.58
819.00	203.36
820.00	196.75
821.00	194.78
822.00	203.14
823.00	204.16
824.00	198.89
825.00	220.39
826.00	203.10
827.00	205.52
828.00	194.92
829.00	202.85
830.00	198.77
831.00	202.97
832.00	195.72
833.00	197.22
834.00	198.37
835.00	203.69
836.00	199.89
837.00	200.45
838.00	201.91
839.00	198.93
840.00	200.16
841.00	198.49
842.00	205.68
843.00	205.87
844.00	194.32
845.00	202.37
846.00	197.18
847.00	205.25
848.00	198.29
849.00	200.59
850.00	203.26
851.00	199.17
852.00	201.38
853.00	205.63
854.00	200.68
855.00	200.65
856.00	222.16
857.00	205.12
858.00	208.62
859.00	201.41
860.00	202.69
861.00	208.83
862.00	201.62
863.00	199.55
864.00	210.76
865.00	199.70
866.00	200.49
867.00	200.26
868.00	202.99
869.00	200.50
870.00	201.50
871.00	198.79
872.00	204.82
873.00	198.99
874.00	199.12
875.00	200.05
876.00	201.38
877.00	200.90
878.00	200.26
879.00	201.52
880.00	198.03
881.00	201.76
882.00	200.10
883.00	201.40
884.00	199.00
885.00	202.79
886.00	202.27
887.00	206.08
888.00	196.76
889.00	198.02
890.00	201.73
891.00	206.32
892.00	205.33
893.00	201.44
894.00	202.09
895.00	209.15
896.00	199.41
897.00	198.41
898.00	198.32
899.00	199.29
900.00	200.16
901.00	198.96
902.00	199.31
903.00	209.10
904.00	199.27
905.00	197.04
906.00	210.69
907.00	199.14
908.00	199.32
909.00	195.49
910.00	197.29
911.00	201.30
912.00	200.29
913.00	203.87
914.00	200.68
915.00	199.36
916.00	200.70
917.00	200.56
918.00	200.38
919.00	202.98
920.00	199.94
921.00	205.96
922.00	198.11
923.00	207.78
924.00	202.58
925.00	200.81
926.00	202.00
927.00	201.28
928.00	198.35
929.00	206.97
930.00	200.79
931.00	200.35
932.00	199.36
933.00	202.92
934.00	196.46
935.00	197.22
936.00	197.49
937.00	197.80
938.00	195.96
939.00	205.96
940.00	201.43
941.00	198.60
942.00	205.92
943.00	202.79
944.00	197.88
945.00	215.19
946.00	202.04
947.00	203.26
948.00	198.50
949.00	200.02
950.00	204.17
951.00	201.71
952.00	201.02
953.00	201.51
954.00	195.45
955.00	201.66
956.00	201.19
957.00	203.81
958.00	202.01
959.00	195.89
960.00	201.93
961.00	198.07
962.00	203.34
963.00	202.90
964.00	200.24
965.00	196.46
966.00	202.73
967.00	203.19
968.00	203.97
969.00	201.02
970.00	190.60
971.00	205.87
972.00	200.11
973.00	208.60
974.00	206.64
975.00	202.57
976.00	204.80
977.00	200.54
978.00	200.99
979.00	204.04
980.00	201.41
981.00	199.60
982.00	202.97
983.00	207.70
984.00	201.00
985.00	208.05
986.00	199.43
987.00	193.89
988.00	204.29
989.00	203.79
990.00	196.71
991.00	201.36
992.00	197.48
993.00	204.62
994.00	199.59
995.00	201.06
996.00	196.62
997.00	205.01
998.00	201.14
999.00	204.34
1000.00	202.30
>>>>>End Processed Spectral Data<<<<<
