SpectraSuite Data File
++++++++++++++++++++++++++++++++++++
Date: Thu Oct 13 15:03:31 CDT 2011
User: Helimak
Dark Spectrum Present: No
Reference Spectrum Present: No
Number of Sampled Component Spectra: 1
Spectrometers: USB2G37154
Integration Time (usec): 500000 (USB2G37154)
Spectra Averaged: 1 (USB2G37154)
Boxcar Smoothing: 0 (USB2G37154)
Correct for Electrical Dark: No (USB2G37154)
Strobe/Lamp Enabled: No (USB2G37154)
Correct for Detector Non-linearity: No (USB2G37154)
Correct for Stray Light: No (USB2G37154)
Number of Pixels in Processed Spectrum: 651
>>>>>Begin Processed Spectral Data<<<<<
350.00	200.79
351.00	201.60
352.00	201.92
353.00	199.56
354.00	200.18
355.00	200.07
356.00	203.09
357.00	199.30
358.00	203.13
359.00	201.22
360.00	197.43
361.00	201.91
362.00	206.99
363.00	202.16
364.00	206.20
365.00	198.78
366.00	197.89
367.00	198.71
368.00	198.50
369.00	200.03
370.00	199.09
371.00	194.85
372.00	202.99
373.00	201.96
374.00	203.79
375.00	206.16
376.00	194.67
377.00	200.04
378.00	208.51
379.00	200.88
380.00	197.81
381.00	198.98
382.00	203.93
383.00	202.70
384.00	199.13
385.00	200.60
386.00	197.95
387.00	204.73
388.00	196.05
389.00	200.27
390.00	199.99
391.00	201.05
392.00	197.67
393.00	200.81
394.00	201.78
395.00	203.19
396.00	203.91
397.00	200.86
398.00	203.87
399.00	201.77
400.00	198.46
401.00	193.83
402.00	200.16
403.00	196.55
404.00	199.26
405.00	203.68
406.00	203.00
407.00	205.32
408.00	199.47
409.00	201.30
410.00	206.61
411.00	197.82
412.00	201.98
413.00	204.80
414.00	201.00
415.00	201.58
416.00	203.28
417.00	204.46
418.00	203.81
419.00	201.95
420.00	205.16
421.00	198.78
422.00	201.00
423.00	202.48
424.00	201.19
425.00	204.15
426.00	202.80
427.00	212.09
428.00	201.84
429.00	198.64
430.00	198.43
431.00	202.65
432.00	211.98
433.00	206.61
434.00	200.47
435.00	199.97
436.00	206.84
437.00	219.23
438.00	202.97
439.00	200.59
440.00	197.79
441.00	202.08
442.00	201.06
443.00	201.50
444.00	201.45
445.00	203.74
446.00	201.59
447.00	199.57
448.00	197.98
449.00	201.06
450.00	197.08
451.00	199.87
452.00	202.93
453.00	204.21
454.00	201.52
455.00	206.42
456.00	203.71
457.00	200.76
458.00	200.09
459.00	200.67
460.00	201.86
461.00	204.85
462.00	205.53
463.00	200.87
464.00	200.38
465.00	218.15
466.00	214.98
467.00	199.02
468.00	204.50
469.00	200.11
470.00	204.79
471.00	197.79
472.00	203.37
473.00	201.43
474.00	208.80
475.00	203.63
476.00	198.25
477.00	199.30
478.00	202.55
479.00	202.02
480.00	207.49
481.00	202.04
482.00	202.69
483.00	204.91
484.00	205.00
485.00	203.20
486.00	201.92
487.00	201.55
488.00	199.81
489.00	202.01
490.00	203.66
491.00	201.28
492.00	202.99
493.00	204.64
494.00	202.89
495.00	200.22
496.00	205.82
497.00	200.64
498.00	200.04
499.00	199.60
500.00	206.65
501.00	203.08
502.00	200.00
503.00	205.34
504.00	204.17
505.00	201.67
506.00	205.34
507.00	208.31
508.00	201.51
509.00	201.28
510.00	200.20
511.00	208.08
512.00	202.24
513.00	196.87
514.00	194.95
515.00	196.95
516.00	201.15
517.00	198.85
518.00	199.75
519.00	201.47
520.00	204.68
521.00	207.71
522.00	206.50
523.00	199.02
524.00	202.38
525.00	200.06
526.00	207.55
527.00	201.87
528.00	201.92
529.00	207.76
530.00	201.96
531.00	193.98
532.00	196.42
533.00	201.28
534.00	197.94
535.00	199.74
536.00	201.66
537.00	202.58
538.00	204.34
539.00	200.03
540.00	200.78
541.00	197.27
542.00	200.17
543.00	201.59
544.00	204.33
545.00	201.39
546.00	201.48
547.00	206.59
548.00	198.60
549.00	200.15
550.00	200.87
551.00	202.06
552.00	198.62
553.00	202.58
554.00	198.89
555.00	199.25
556.00	202.07
557.00	196.18
558.00	204.05
559.00	197.39
560.00	207.19
561.00	201.52
562.00	193.42
563.00	209.05
564.00	201.52
565.00	201.18
566.00	202.06
567.00	205.82
568.00	200.91
569.00	199.24
570.00	213.93
571.00	230.05
572.00	202.02
573.00	213.17
574.00	208.87
575.00	202.72
576.00	195.87
577.00	200.39
578.00	200.08
579.00	198.45
580.00	200.78
581.00	206.20
582.00	202.90
583.00	201.85
584.00	202.92
585.00	201.90
586.00	205.47
587.00	200.00
588.00	199.11
589.00	200.62
590.00	197.94
591.00	202.86
592.00	199.10
593.00	200.81
594.00	201.06
595.00	192.26
596.00	201.28
597.00	203.91
598.00	207.19
599.00	203.69
600.00	196.69
601.00	199.27
602.00	198.26
603.00	204.35
604.00	196.74
605.00	202.35
606.00	203.41
607.00	203.91
608.00	196.17
609.00	199.96
610.00	201.01
611.00	201.03
612.00	198.76
613.00	206.62
614.00	197.44
615.00	198.71
616.00	202.07
617.00	197.96
618.00	212.12
619.00	243.75
620.00	202.57
621.00	208.58
622.00	200.41
623.00	200.62
624.00	202.77
625.00	201.85
626.00	200.05
627.00	204.32
628.00	201.53
629.00	209.15
630.00	203.16
631.00	200.49
632.00	200.12
633.00	201.73
634.00	201.98
635.00	202.96
636.00	204.64
637.00	196.99
638.00	201.64
639.00	200.44
640.00	209.83
641.00	202.64
642.00	200.66
643.00	203.94
644.00	203.47
645.00	200.82
646.00	206.19
647.00	196.91
648.00	198.20
649.00	198.49
650.00	199.19
651.00	199.11
652.00	198.63
653.00	195.44
654.00	204.23
655.00	202.35
656.00	204.83
657.00	200.03
658.00	201.00
659.00	200.23
660.00	201.32
661.00	202.43
662.00	197.54
663.00	194.47
664.00	218.82
665.00	203.27
666.00	202.36
667.00	206.75
668.00	207.32
669.00	201.17
670.00	200.88
671.00	199.37
672.00	203.03
673.00	204.01
674.00	197.19
675.00	198.85
676.00	202.14
677.00	202.54
678.00	200.85
679.00	202.19
680.00	199.24
681.00	211.96
682.00	213.89
683.00	201.32
684.00	217.34
685.00	219.11
686.00	198.53
687.00	208.52
688.00	201.03
689.00	198.98
690.00	197.83
691.00	198.72
692.00	197.32
693.00	200.74
694.00	201.09
695.00	204.02
696.00	207.00
697.00	212.87
698.00	202.09
699.00	198.84
700.00	199.18
701.00	197.38
702.00	197.59
703.00	204.59
704.00	200.10
705.00	199.90
706.00	202.17
707.00	200.99
708.00	196.72
709.00	205.42
710.00	202.27
711.00	199.01
712.00	201.28
713.00	197.83
714.00	197.84
715.00	203.71
716.00	197.33
717.00	199.32
718.00	196.89
719.00	196.71
720.00	203.71
721.00	202.29
722.00	203.68
723.00	199.48
724.00	206.02
725.00	255.38
726.00	193.26
727.00	194.02
728.00	204.22
729.00	203.79
730.00	200.79
731.00	205.80
732.00	199.36
733.00	201.44
734.00	209.21
735.00	200.02
736.00	203.18
737.00	198.96
738.00	197.92
739.00	202.25
740.00	197.86
741.00	195.52
742.00	197.90
743.00	198.03
744.00	198.95
745.00	219.32
746.00	197.05
747.00	202.64
748.00	199.03
749.00	200.33
750.00	201.10
751.00	197.09
752.00	194.03
753.00	197.74
754.00	201.90
755.00	199.01
756.00	198.54
757.00	198.56
758.00	204.42
759.00	212.42
760.00	204.36
761.00	199.72
762.00	202.58
763.00	218.93
764.00	196.06
765.00	204.49
766.00	198.78
767.00	204.40
768.00	199.00
769.00	200.65
770.00	200.67
771.00	202.00
772.00	200.22
773.00	200.40
774.00	202.98
775.00	211.27
776.00	199.14
777.00	197.78
778.00	201.03
779.00	214.02
780.00	203.06
781.00	198.02
782.00	199.57
783.00	199.24
784.00	199.76
785.00	199.78
786.00	201.52
787.00	205.22
788.00	203.54
789.00	212.00
790.00	200.13
791.00	198.23
792.00	200.65
793.00	199.35
794.00	196.94
795.00	196.35
796.00	203.12
797.00	199.65
798.00	206.25
799.00	203.38
800.00	199.38
801.00	193.62
802.00	202.47
803.00	208.51
804.00	197.44
805.00	197.20
806.00	202.10
807.00	196.80
808.00	204.58
809.00	199.53
810.00	202.53
811.00	201.44
812.00	201.71
813.00	202.47
814.00	202.38
815.00	202.14
816.00	201.27
817.00	206.25
818.00	199.55
819.00	202.24
820.00	198.72
821.00	199.81
822.00	203.54
823.00	204.00
824.00	198.35
825.00	223.39
826.00	207.57
827.00	201.37
828.00	199.91
829.00	204.35
830.00	194.54
831.00	199.69
832.00	199.52
833.00	200.36
834.00	198.39
835.00	202.80
836.00	201.94
837.00	203.01
838.00	199.86
839.00	198.93
840.00	204.50
841.00	199.64
842.00	206.68
843.00	203.72
844.00	194.48
845.00	200.20
846.00	200.41
847.00	205.07
848.00	197.82
849.00	198.77
850.00	198.12
851.00	199.28
852.00	201.22
853.00	205.64
854.00	202.14
855.00	202.85
856.00	222.65
857.00	200.23
858.00	210.73
859.00	201.31
860.00	198.23
861.00	211.61
862.00	198.50
863.00	198.35
864.00	204.96
865.00	206.07
866.00	198.80
867.00	203.03
868.00	198.00
869.00	197.96
870.00	199.39
871.00	200.88
872.00	200.88
873.00	201.05
874.00	207.02
875.00	198.15
876.00	200.57
877.00	196.71
878.00	198.04
879.00	204.57
880.00	202.14
881.00	209.95
882.00	200.26
883.00	204.69
884.00	201.00
885.00	198.22
886.00	198.02
887.00	203.77
888.00	195.11
889.00	199.23
890.00	205.07
891.00	208.11
892.00	207.07
893.00	199.64
894.00	197.46
895.00	206.63
896.00	197.77
897.00	196.14
898.00	199.72
899.00	195.49
900.00	202.20
901.00	201.21
902.00	201.51
903.00	212.17
904.00	199.15
905.00	197.08
906.00	212.73
907.00	200.66
908.00	198.24
909.00	197.03
910.00	199.87
911.00	201.78
912.00	201.03
913.00	197.17
914.00	200.74
915.00	200.41
916.00	198.57
917.00	202.26
918.00	199.27
919.00	202.12
920.00	200.01
921.00	200.40
922.00	198.04
923.00	202.20
924.00	197.33
925.00	205.73
926.00	199.97
927.00	202.21
928.00	197.00
929.00	203.75
930.00	200.62
931.00	197.95
932.00	201.00
933.00	200.87
934.00	195.25
935.00	193.84
936.00	198.53
937.00	201.02
938.00	200.29
939.00	201.15
940.00	202.87
941.00	205.84
942.00	207.02
943.00	198.48
944.00	198.84
945.00	210.88
946.00	196.28
947.00	203.18
948.00	196.88
949.00	200.55
950.00	197.92
951.00	201.71
952.00	198.05
953.00	197.54
954.00	192.81
955.00	206.05
956.00	200.37
957.00	201.91
958.00	203.91
959.00	198.90
960.00	197.79
961.00	199.94
962.00	201.53
963.00	205.49
964.00	201.05
965.00	194.23
966.00	199.53
967.00	203.69
968.00	200.99
969.00	197.63
970.00	196.96
971.00	203.19
972.00	202.29
973.00	212.95
974.00	205.32
975.00	201.18
976.00	205.01
977.00	201.63
978.00	199.57
979.00	204.61
980.00	197.56
981.00	201.89
982.00	202.60
983.00	208.76
984.00	198.14
985.00	204.36
986.00	198.08
987.00	195.79
988.00	200.36
989.00	199.88
990.00	195.51
991.00	199.24
992.00	198.70
993.00	202.15
994.00	200.70
995.00	199.10
996.00	201.22
997.00	202.33
998.00	203.54
999.00	205.38
1000.00	201.14
>>>>>End Processed Spectral Data<<<<<
