SpectraSuite Data File
++++++++++++++++++++++++++++++++++++
Date: Thu Oct 13 15:03:31 CDT 2011
User: Helimak
Dark Spectrum Present: No
Reference Spectrum Present: No
Number of Sampled Component Spectra: 1
Spectrometers: USB2G37154
Integration Time (usec): 500000 (USB2G37154)
Spectra Averaged: 1 (USB2G37154)
Boxcar Smoothing: 0 (USB2G37154)
Correct for Electrical Dark: No (USB2G37154)
Strobe/Lamp Enabled: No (USB2G37154)
Correct for Detector Non-linearity: No (USB2G37154)
Correct for Stray Light: No (USB2G37154)
Number of Pixels in Processed Spectrum: 651
>>>>>Begin Processed Spectral Data<<<<<
350.00	198.37
351.00	197.26
352.00	196.52
353.00	198.16
354.00	200.54
355.00	204.34
356.00	204.11
357.00	195.30
358.00	205.26
359.00	195.58
360.00	202.45
361.00	197.72
362.00	210.44
363.00	198.84
364.00	202.94
365.00	195.47
366.00	200.61
367.00	201.72
368.00	203.66
369.00	200.44
370.00	207.10
371.00	198.62
372.00	202.47
373.00	203.08
374.00	202.48
375.00	210.51
376.00	197.70
377.00	197.66
378.00	207.59
379.00	197.51
380.00	204.28
381.00	203.98
382.00	199.82
383.00	206.54
384.00	199.95
385.00	203.07
386.00	198.97
387.00	203.24
388.00	198.44
389.00	202.12
390.00	201.95
391.00	201.51
392.00	201.18
393.00	200.69
394.00	210.25
395.00	201.68
396.00	204.05
397.00	201.41
398.00	201.52
399.00	204.51
400.00	201.52
401.00	199.57
402.00	200.12
403.00	201.35
404.00	203.99
405.00	204.55
406.00	196.00
407.00	196.60
408.00	199.63
409.00	201.33
410.00	201.36
411.00	200.51
412.00	199.95
413.00	203.77
414.00	200.35
415.00	203.24
416.00	205.43
417.00	204.55
418.00	206.12
419.00	200.46
420.00	207.86
421.00	202.17
422.00	205.63
423.00	201.69
424.00	200.56
425.00	202.08
426.00	200.39
427.00	213.11
428.00	201.83
429.00	198.51
430.00	201.38
431.00	201.28
432.00	213.96
433.00	206.21
434.00	200.34
435.00	201.87
436.00	207.67
437.00	225.77
438.00	205.73
439.00	204.14
440.00	202.40
441.00	205.50
442.00	200.10
443.00	200.02
444.00	200.41
445.00	197.10
446.00	205.88
447.00	198.86
448.00	204.22
449.00	205.01
450.00	200.94
451.00	204.21
452.00	200.12
453.00	204.14
454.00	204.81
455.00	206.67
456.00	202.73
457.00	202.38
458.00	206.19
459.00	202.53
460.00	206.94
461.00	199.11
462.00	203.06
463.00	205.81
464.00	203.87
465.00	217.07
466.00	217.83
467.00	203.45
468.00	201.41
469.00	203.92
470.00	203.03
471.00	197.40
472.00	200.61
473.00	203.71
474.00	204.65
475.00	202.36
476.00	196.13
477.00	199.85
478.00	199.62
479.00	199.50
480.00	198.49
481.00	201.92
482.00	203.10
483.00	200.83
484.00	202.23
485.00	208.98
486.00	203.45
487.00	200.33
488.00	202.52
489.00	205.05
490.00	202.50
491.00	201.61
492.00	203.69
493.00	207.19
494.00	201.58
495.00	200.37
496.00	207.72
497.00	199.88
498.00	204.18
499.00	201.00
500.00	202.91
501.00	200.73
502.00	204.00
503.00	201.36
504.00	202.42
505.00	202.07
506.00	203.84
507.00	207.72
508.00	206.12
509.00	202.02
510.00	203.27
511.00	207.97
512.00	204.67
513.00	206.45
514.00	201.72
515.00	200.16
516.00	203.86
517.00	201.04
518.00	202.28
519.00	205.14
520.00	208.35
521.00	201.22
522.00	204.56
523.00	199.04
524.00	202.99
525.00	210.89
526.00	208.46
527.00	202.30
528.00	197.68
529.00	204.20
530.00	200.86
531.00	201.94
532.00	203.57
533.00	197.11
534.00	197.59
535.00	202.87
536.00	197.62
537.00	199.00
538.00	200.93
539.00	201.14
540.00	198.84
541.00	195.61
542.00	203.48
543.00	200.18
544.00	206.03
545.00	202.03
546.00	198.00
547.00	209.68
548.00	196.88
549.00	200.50
550.00	206.33
551.00	200.06
552.00	200.98
553.00	203.31
554.00	201.87
555.00	198.13
556.00	202.59
557.00	205.77
558.00	203.99
559.00	195.01
560.00	206.15
561.00	203.87
562.00	198.97
563.00	203.84
564.00	199.55
565.00	201.79
566.00	204.42
567.00	204.29
568.00	198.07
569.00	199.14
570.00	216.17
571.00	228.89
572.00	204.48
573.00	214.21
574.00	214.03
575.00	198.86
576.00	200.95
577.00	197.89
578.00	199.20
579.00	200.09
580.00	196.26
581.00	202.27
582.00	200.07
583.00	203.45
584.00	195.97
585.00	198.66
586.00	207.77
587.00	202.09
588.00	199.14
589.00	197.61
590.00	197.78
591.00	199.15
592.00	200.31
593.00	196.62
594.00	202.07
595.00	203.28
596.00	201.67
597.00	198.82
598.00	208.37
599.00	204.11
600.00	197.28
601.00	200.26
602.00	199.11
603.00	205.94
604.00	200.87
605.00	201.53
606.00	198.83
607.00	201.61
608.00	197.84
609.00	196.86
610.00	200.93
611.00	198.91
612.00	202.67
613.00	205.94
614.00	199.20
615.00	200.57
616.00	196.17
617.00	199.97
618.00	209.04
619.00	239.29
620.00	204.18
621.00	205.50
622.00	201.73
623.00	198.62
624.00	196.79
625.00	197.92
626.00	197.89
627.00	200.60
628.00	203.70
629.00	208.49
630.00	196.03
631.00	201.22
632.00	199.97
633.00	204.04
634.00	198.42
635.00	202.98
636.00	204.39
637.00	204.06
638.00	197.23
639.00	196.49
640.00	212.24
641.00	202.76
642.00	198.69
643.00	200.08
644.00	199.87
645.00	203.90
646.00	205.11
647.00	201.46
648.00	201.34
649.00	202.21
650.00	197.41
651.00	198.89
652.00	202.48
653.00	197.64
654.00	202.12
655.00	202.10
656.00	202.06
657.00	204.20
658.00	199.99
659.00	200.02
660.00	200.03
661.00	198.03
662.00	199.20
663.00	194.87
664.00	221.32
665.00	204.45
666.00	200.33
667.00	206.20
668.00	212.58
669.00	200.59
670.00	199.22
671.00	193.48
672.00	204.95
673.00	202.97
674.00	198.02
675.00	199.44
676.00	204.61
677.00	202.11
678.00	196.00
679.00	199.76
680.00	205.35
681.00	211.26
682.00	215.39
683.00	203.59
684.00	219.41
685.00	215.72
686.00	197.49
687.00	200.64
688.00	196.26
689.00	198.61
690.00	202.51
691.00	200.73
692.00	201.23
693.00	199.21
694.00	201.33
695.00	197.94
696.00	203.00
697.00	209.98
698.00	201.75
699.00	202.26
700.00	200.19
701.00	201.18
702.00	201.86
703.00	202.80
704.00	200.46
705.00	194.53
706.00	197.08
707.00	198.86
708.00	198.75
709.00	203.43
710.00	200.10
711.00	199.13
712.00	199.99
713.00	198.15
714.00	198.37
715.00	200.24
716.00	200.10
717.00	199.35
718.00	201.62
719.00	201.96
720.00	201.93
721.00	198.60
722.00	198.44
723.00	200.53
724.00	202.41
725.00	252.66
726.00	196.73
727.00	200.36
728.00	204.29
729.00	202.00
730.00	199.67
731.00	204.00
732.00	196.60
733.00	205.04
734.00	202.36
735.00	196.88
736.00	198.03
737.00	201.79
738.00	196.45
739.00	200.92
740.00	201.17
741.00	197.67
742.00	200.02
743.00	195.97
744.00	197.93
745.00	221.92
746.00	197.03
747.00	197.90
748.00	196.10
749.00	204.22
750.00	200.57
751.00	198.04
752.00	196.19
753.00	200.81
754.00	198.44
755.00	198.75
756.00	196.65
757.00	202.44
758.00	209.96
759.00	209.23
760.00	207.06
761.00	201.54
762.00	204.64
763.00	217.86
764.00	198.05
765.00	202.97
766.00	197.73
767.00	194.41
768.00	199.18
769.00	201.13
770.00	196.95
771.00	198.15
772.00	201.85
773.00	203.07
774.00	196.78
775.00	210.22
776.00	201.67
777.00	195.66
778.00	207.01
779.00	212.85
780.00	196.13
781.00	198.63
782.00	200.01
783.00	199.94
784.00	198.44
785.00	197.21
786.00	198.33
787.00	199.15
788.00	200.73
789.00	204.02
790.00	203.88
791.00	202.24
792.00	201.15
793.00	195.40
794.00	197.27
795.00	197.53
796.00	196.71
797.00	195.01
798.00	202.28
799.00	199.62
800.00	203.33
801.00	199.44
802.00	200.82
803.00	208.35
804.00	192.84
805.00	198.51
806.00	204.08
807.00	198.88
808.00	205.26
809.00	201.33
810.00	203.36
811.00	198.41
812.00	203.00
813.00	203.75
814.00	204.31
815.00	205.29
816.00	197.27
817.00	210.16
818.00	199.79
819.00	199.70
820.00	201.03
821.00	199.86
822.00	205.48
823.00	202.85
824.00	199.00
825.00	222.54
826.00	205.86
827.00	198.62
828.00	197.94
829.00	198.56
830.00	198.79
831.00	201.57
832.00	199.31
833.00	203.78
834.00	201.32
835.00	208.71
836.00	200.42
837.00	197.56
838.00	196.67
839.00	196.91
840.00	200.11
841.00	201.74
842.00	202.65
843.00	204.53
844.00	195.15
845.00	201.13
846.00	197.33
847.00	203.26
848.00	202.43
849.00	199.88
850.00	199.19
851.00	199.28
852.00	202.61
853.00	208.53
854.00	199.60
855.00	201.15
856.00	217.59
857.00	206.22
858.00	206.80
859.00	201.39
860.00	199.46
861.00	210.35
862.00	199.44
863.00	197.34
864.00	209.07
865.00	205.62
866.00	202.66
867.00	197.03
868.00	203.99
869.00	200.45
870.00	199.72
871.00	200.62
872.00	197.93
873.00	201.10
874.00	194.15
875.00	200.73
876.00	199.56
877.00	183.75
878.00	201.97
879.00	201.63
880.00	202.89
881.00	198.61
882.00	199.06
883.00	200.34
884.00	193.00
885.00	203.14
886.00	199.81
887.00	203.80
888.00	195.08
889.00	198.63
890.00	198.20
891.00	206.64
892.00	202.44
893.00	200.38
894.00	195.01
895.00	212.35
896.00	197.97
897.00	198.99
898.00	201.71
899.00	198.59
900.00	202.35
901.00	198.69
902.00	197.44
903.00	215.84
904.00	194.69
905.00	198.29
906.00	211.57
907.00	198.67
908.00	197.30
909.00	194.74
910.00	195.57
911.00	199.65
912.00	203.36
913.00	197.46
914.00	201.98
915.00	197.91
916.00	202.45
917.00	199.65
918.00	203.76
919.00	203.83
920.00	200.09
921.00	205.54
922.00	198.91
923.00	197.39
924.00	200.01
925.00	202.26
926.00	198.00
927.00	198.75
928.00	196.58
929.00	196.04
930.00	203.89
931.00	196.38
932.00	199.40
933.00	197.36
934.00	198.13
935.00	196.51
936.00	203.54
937.00	196.90
938.00	202.71
939.00	204.70
940.00	199.76
941.00	199.44
942.00	206.96
943.00	203.01
944.00	203.42
945.00	212.97
946.00	196.42
947.00	200.20
948.00	199.82
949.00	198.05
950.00	203.66
951.00	198.77
952.00	198.08
953.00	197.85
954.00	196.33
955.00	203.95
956.00	202.07
957.00	202.98
958.00	198.09
959.00	200.89
960.00	201.35
961.00	198.91
962.00	201.20
963.00	201.84
964.00	201.63
965.00	198.12
966.00	198.37
967.00	204.90
968.00	202.99
969.00	198.42
970.00	198.18
971.00	205.42
972.00	202.14
973.00	205.53
974.00	204.79
975.00	208.01
976.00	204.29
977.00	196.11
978.00	200.29
979.00	204.84
980.00	197.98
981.00	196.77
982.00	203.06
983.00	206.73
984.00	200.26
985.00	206.86
986.00	196.36
987.00	200.68
988.00	203.78
989.00	203.62
990.00	196.50
991.00	199.67
992.00	199.71
993.00	202.61
994.00	204.94
995.00	200.53
996.00	198.62
997.00	202.29
998.00	197.77
999.00	202.76
1000.00	198.09
>>>>>End Processed Spectral Data<<<<<
