SpectraSuite Data File
++++++++++++++++++++++++++++++++++++
Date: Thu Oct 13 15:03:30 CDT 2011
User: Helimak
Dark Spectrum Present: No
Reference Spectrum Present: No
Number of Sampled Component Spectra: 1
Spectrometers: USB2G37154
Integration Time (usec): 500000 (USB2G37154)
Spectra Averaged: 1 (USB2G37154)
Boxcar Smoothing: 0 (USB2G37154)
Correct for Electrical Dark: No (USB2G37154)
Strobe/Lamp Enabled: No (USB2G37154)
Correct for Detector Non-linearity: No (USB2G37154)
Correct for Stray Light: No (USB2G37154)
Number of Pixels in Processed Spectrum: 651
>>>>>Begin Processed Spectral Data<<<<<
350.00	194.17
351.00	197.97
352.00	200.52
353.00	197.58
354.00	195.15
355.00	201.52
356.00	199.19
357.00	194.26
358.00	202.68
359.00	199.26
360.00	200.78
361.00	197.50
362.00	206.54
363.00	199.20
364.00	202.10
365.00	201.54
366.00	197.40
367.00	203.07
368.00	201.04
369.00	197.76
370.00	201.07
371.00	200.95
372.00	205.31
373.00	199.91
374.00	203.83
375.00	208.63
376.00	201.68
377.00	198.81
378.00	203.74
379.00	201.00
380.00	198.12
381.00	201.10
382.00	201.81
383.00	207.55
384.00	198.87
385.00	206.24
386.00	200.90
387.00	203.59
388.00	197.07
389.00	200.69
390.00	202.12
391.00	204.09
392.00	199.93
393.00	201.27
394.00	204.64
395.00	200.79
396.00	203.02
397.00	202.84
398.00	198.23
399.00	200.14
400.00	200.64
401.00	203.36
402.00	199.96
403.00	201.34
404.00	201.51
405.00	202.97
406.00	201.00
407.00	204.68
408.00	203.64
409.00	199.80
410.00	199.83
411.00	198.23
412.00	204.44
413.00	205.99
414.00	199.49
415.00	205.72
416.00	204.45
417.00	203.77
418.00	200.31
419.00	199.34
420.00	204.19
421.00	203.68
422.00	202.62
423.00	203.87
424.00	199.95
425.00	201.12
426.00	204.28
427.00	214.85
428.00	199.67
429.00	200.72
430.00	202.11
431.00	198.89
432.00	212.32
433.00	206.66
434.00	203.53
435.00	203.07
436.00	204.64
437.00	221.92
438.00	206.33
439.00	200.14
440.00	199.39
441.00	205.26
442.00	200.85
443.00	202.35
444.00	199.66
445.00	198.99
446.00	203.67
447.00	199.85
448.00	197.90
449.00	205.06
450.00	201.13
451.00	202.84
452.00	201.66
453.00	203.90
454.00	199.58
455.00	203.17
456.00	204.19
457.00	200.50
458.00	201.78
459.00	203.04
460.00	204.72
461.00	205.76
462.00	205.00
463.00	201.09
464.00	205.25
465.00	218.40
466.00	218.80
467.00	200.61
468.00	204.08
469.00	198.82
470.00	200.34
471.00	200.73
472.00	202.25
473.00	207.81
474.00	212.13
475.00	202.63
476.00	201.29
477.00	200.27
478.00	199.80
479.00	202.11
480.00	201.82
481.00	204.23
482.00	202.81
483.00	200.76
484.00	204.36
485.00	197.96
486.00	206.56
487.00	202.13
488.00	204.28
489.00	208.03
490.00	206.46
491.00	201.36
492.00	205.95
493.00	204.94
494.00	201.80
495.00	200.08
496.00	207.38
497.00	200.50
498.00	202.05
499.00	199.56
500.00	204.48
501.00	201.23
502.00	208.99
503.00	201.36
504.00	204.04
505.00	200.90
506.00	202.60
507.00	204.74
508.00	204.90
509.00	199.92
510.00	204.94
511.00	202.04
512.00	201.86
513.00	201.50
514.00	198.09
515.00	200.88
516.00	201.56
517.00	198.42
518.00	204.99
519.00	202.17
520.00	200.32
521.00	201.32
522.00	204.03
523.00	201.47
524.00	198.53
525.00	205.20
526.00	204.29
527.00	199.15
528.00	198.41
529.00	202.94
530.00	197.05
531.00	201.97
532.00	201.70
533.00	196.36
534.00	198.24
535.00	198.83
536.00	201.50
537.00	199.28
538.00	199.35
539.00	200.57
540.00	204.60
541.00	196.15
542.00	204.10
543.00	201.31
544.00	200.18
545.00	196.82
546.00	204.91
547.00	207.12
548.00	196.84
549.00	198.47
550.00	200.05
551.00	199.07
552.00	200.25
553.00	200.64
554.00	202.56
555.00	201.14
556.00	202.87
557.00	199.59
558.00	201.05
559.00	198.02
560.00	209.29
561.00	205.30
562.00	202.21
563.00	199.54
564.00	201.04
565.00	200.81
566.00	200.03
567.00	209.23
568.00	200.11
569.00	196.76
570.00	216.74
571.00	230.72
572.00	187.87
573.00	208.66
574.00	209.06
575.00	201.61
576.00	205.51
577.00	201.46
578.00	196.45
579.00	200.89
580.00	199.97
581.00	200.10
582.00	201.83
583.00	205.22
584.00	204.95
585.00	198.95
586.00	203.61
587.00	199.01
588.00	199.88
589.00	196.90
590.00	198.82
591.00	200.56
592.00	198.09
593.00	204.03
594.00	196.09
595.00	194.35
596.00	196.39
597.00	203.10
598.00	205.09
599.00	202.98
600.00	199.63
601.00	201.26
602.00	200.62
603.00	204.90
604.00	202.29
605.00	201.93
606.00	199.10
607.00	197.68
608.00	199.49
609.00	199.91
610.00	198.84
611.00	203.20
612.00	199.39
613.00	201.00
614.00	200.30
615.00	200.19
616.00	203.80
617.00	200.97
618.00	211.07
619.00	244.58
620.00	201.77
621.00	208.18
622.00	199.43
623.00	202.27
624.00	198.66
625.00	200.12
626.00	198.90
627.00	201.90
628.00	203.23
629.00	210.97
630.00	200.14
631.00	202.27
632.00	198.92
633.00	202.28
634.00	196.61
635.00	209.08
636.00	205.67
637.00	203.24
638.00	201.47
639.00	201.05
640.00	207.39
641.00	202.71
642.00	198.96
643.00	207.37
644.00	197.19
645.00	200.06
646.00	208.11
647.00	197.13
648.00	205.30
649.00	203.91
650.00	198.22
651.00	201.07
652.00	200.76
653.00	197.63
654.00	204.04
655.00	201.71
656.00	201.00
657.00	201.21
658.00	205.00
659.00	204.20
660.00	195.20
661.00	199.87
662.00	203.33
663.00	198.45
664.00	214.46
665.00	202.82
666.00	199.60
667.00	210.50
668.00	210.15
669.00	199.22
670.00	197.31
671.00	201.53
672.00	197.17
673.00	200.98
674.00	200.01
675.00	204.92
676.00	195.63
677.00	201.51
678.00	198.21
679.00	204.25
680.00	204.68
681.00	211.27
682.00	216.19
683.00	201.69
684.00	217.07
685.00	215.80
686.00	198.87
687.00	199.06
688.00	197.02
689.00	200.38
690.00	196.80
691.00	202.95
692.00	199.87
693.00	198.91
694.00	198.11
695.00	195.06
696.00	206.00
697.00	210.92
698.00	203.11
699.00	200.60
700.00	197.80
701.00	195.03
702.00	198.59
703.00	202.92
704.00	203.63
705.00	200.82
706.00	199.65
707.00	200.64
708.00	201.10
709.00	205.96
710.00	200.39
711.00	197.84
712.00	200.03
713.00	199.42
714.00	197.78
715.00	201.74
716.00	197.68
717.00	199.92
718.00	202.44
719.00	202.12
720.00	204.95
721.00	200.00
722.00	201.61
723.00	201.19
724.00	202.32
725.00	253.32
726.00	194.37
727.00	196.35
728.00	201.82
729.00	200.87
730.00	200.34
731.00	200.70
732.00	200.27
733.00	200.31
734.00	200.72
735.00	199.01
736.00	198.35
737.00	204.50
738.00	195.19
739.00	205.55
740.00	200.80
741.00	197.51
742.00	199.95
743.00	199.93
744.00	199.84
745.00	219.94
746.00	199.12
747.00	195.13
748.00	201.78
749.00	199.21
750.00	199.57
751.00	199.41
752.00	195.55
753.00	196.43
754.00	198.51
755.00	196.43
756.00	201.98
757.00	205.50
758.00	209.58
759.00	204.14
760.00	201.93
761.00	193.47
762.00	207.24
763.00	218.04
764.00	193.01
765.00	201.64
766.00	198.22
767.00	202.26
768.00	197.40
769.00	199.95
770.00	198.61
771.00	200.29
772.00	193.27
773.00	199.91
774.00	200.49
775.00	212.24
776.00	203.31
777.00	200.01
778.00	201.04
779.00	215.73
780.00	197.69
781.00	198.94
782.00	195.95
783.00	199.79
784.00	202.42
785.00	198.48
786.00	200.48
787.00	201.30
788.00	201.11
789.00	204.97
790.00	204.25
791.00	201.80
792.00	194.64
793.00	195.22
794.00	201.36
795.00	197.56
796.00	195.20
797.00	195.60
798.00	210.92
799.00	199.97
800.00	201.20
801.00	196.72
802.00	198.31
803.00	210.60
804.00	194.30
805.00	196.05
806.00	210.32
807.00	200.69
808.00	205.89
809.00	201.08
810.00	204.00
811.00	196.49
812.00	202.27
813.00	205.58
814.00	203.32
815.00	202.97
816.00	197.00
817.00	210.35
818.00	194.40
819.00	200.95
820.00	199.87
821.00	198.90
822.00	201.81
823.00	205.05
824.00	200.04
825.00	226.06
826.00	204.27
827.00	199.86
828.00	195.46
829.00	202.43
830.00	197.43
831.00	203.98
832.00	199.98
833.00	199.61
834.00	196.42
835.00	203.40
836.00	201.98
837.00	201.81
838.00	201.42
839.00	195.89
840.00	200.18
841.00	200.31
842.00	203.26
843.00	201.27
844.00	195.47
845.00	199.36
846.00	199.17
847.00	204.02
848.00	200.10
849.00	199.00
850.00	200.08
851.00	200.99
852.00	202.24
853.00	200.31
854.00	201.91
855.00	201.99
856.00	220.33
857.00	200.12
858.00	207.76
859.00	202.40
860.00	198.98
861.00	209.64
862.00	197.37
863.00	198.01
864.00	208.82
865.00	199.36
866.00	199.71
867.00	203.12
868.00	203.01
869.00	197.81
870.00	201.41
871.00	201.55
872.00	199.84
873.00	204.72
874.00	196.65
875.00	199.59
876.00	201.19
877.00	201.45
878.00	200.78
879.00	198.56
880.00	202.00
881.00	198.63
882.00	196.52
883.00	201.03
884.00	194.00
885.00	201.64
886.00	200.50
887.00	205.25
888.00	199.64
889.00	200.20
890.00	204.80
891.00	207.02
892.00	203.65
893.00	204.81
894.00	198.76
895.00	208.15
896.00	195.45
897.00	196.66
898.00	197.93
899.00	204.29
900.00	202.38
901.00	198.97
902.00	191.11
903.00	214.73
904.00	201.78
905.00	202.17
906.00	209.61
907.00	198.14
908.00	197.24
909.00	198.93
910.00	191.16
911.00	199.62
912.00	202.18
913.00	201.18
914.00	205.14
915.00	200.08
916.00	204.35
917.00	202.40
918.00	199.74
919.00	205.97
920.00	203.29
921.00	203.08
922.00	199.43
923.00	204.27
924.00	203.62
925.00	199.20
926.00	200.00
927.00	204.16
928.00	197.47
929.00	201.04
930.00	201.43
931.00	193.43
932.00	195.75
933.00	199.05
934.00	200.25
935.00	198.50
936.00	196.44
937.00	201.82
938.00	207.18
939.00	202.44
940.00	201.64
941.00	202.83
942.00	205.97
943.00	206.14
944.00	201.24
945.00	218.16
946.00	198.20
947.00	200.37
948.00	201.13
949.00	199.64
950.00	203.09
951.00	202.72
952.00	200.00
953.00	197.76
954.00	196.04
955.00	207.84
956.00	202.54
957.00	200.90
958.00	201.47
959.00	201.86
960.00	199.76
961.00	200.86
962.00	205.95
963.00	198.90
964.00	202.33
965.00	197.84
966.00	198.24
967.00	205.76
968.00	204.96
969.00	200.03
970.00	197.83
971.00	206.49
972.00	201.22
973.00	209.79
974.00	201.90
975.00	201.21
976.00	206.42
977.00	197.16
978.00	196.90
979.00	202.27
980.00	195.14
981.00	198.95
982.00	200.85
983.00	212.89
984.00	202.38
985.00	204.98
986.00	195.79
987.00	201.50
988.00	204.51
989.00	203.41
990.00	195.07
991.00	203.70
992.00	201.51
993.00	205.25
994.00	204.00
995.00	196.49
996.00	202.64
997.00	202.02
998.00	200.70
999.00	206.40
1000.00	198.29
>>>>>End Processed Spectral Data<<<<<
