SpectraSuite Data File
++++++++++++++++++++++++++++++++++++
Date: Thu Oct 13 14:59:43 CDT 2011
User: Helimak
Dark Spectrum Present: No
Reference Spectrum Present: No
Number of Sampled Component Spectra: 1
Spectrometers: USB2G37154
Integration Time (usec): 200000 (USB2G37154)
Spectra Averaged: 1 (USB2G37154)
Boxcar Smoothing: 0 (USB2G37154)
Correct for Electrical Dark: No (USB2G37154)
Strobe/Lamp Enabled: No (USB2G37154)
Correct for Detector Non-linearity: No (USB2G37154)
Correct for Stray Light: No (USB2G37154)
Number of Pixels in Processed Spectrum: 651
>>>>>Begin Processed Spectral Data<<<<<
350.00	195.51
351.00	196.56
352.00	195.48
353.00	194.84
354.00	195.22
355.00	197.72
356.00	201.23
357.00	195.48
358.00	204.16
359.00	196.67
360.00	199.29
361.00	199.67
362.00	203.55
363.00	196.43
364.00	201.86
365.00	200.20
366.00	201.22
367.00	199.91
368.00	198.67
369.00	200.16
370.00	199.06
371.00	198.22
372.00	198.36
373.00	198.06
374.00	200.30
375.00	202.26
376.00	198.59
377.00	195.74
378.00	201.89
379.00	199.65
380.00	200.12
381.00	201.44
382.00	200.05
383.00	205.60
384.00	198.87
385.00	195.87
386.00	199.99
387.00	202.29
388.00	199.69
389.00	197.08
390.00	199.31
391.00	203.72
392.00	202.48
393.00	196.90
394.00	201.69
395.00	199.33
396.00	199.97
397.00	202.80
398.00	202.33
399.00	199.35
400.00	200.82
401.00	199.97
402.00	200.61
403.00	199.24
404.00	200.12
405.00	199.93
406.00	200.02
407.00	194.98
408.00	201.74
409.00	201.38
410.00	200.88
411.00	201.53
412.00	197.98
413.00	199.79
414.00	202.43
415.00	199.78
416.00	201.68
417.00	200.37
418.00	203.02
419.00	204.39
420.00	203.90
421.00	200.08
422.00	202.30
423.00	199.40
424.00	202.58
425.00	201.61
426.00	197.78
427.00	204.03
428.00	199.48
429.00	199.46
430.00	205.59
431.00	198.46
432.00	205.25
433.00	198.28
434.00	200.18
435.00	198.94
436.00	201.08
437.00	205.40
438.00	197.91
439.00	199.20
440.00	199.22
441.00	200.60
442.00	201.41
443.00	199.09
444.00	199.20
445.00	197.89
446.00	201.53
447.00	204.04
448.00	198.41
449.00	195.91
450.00	200.86
451.00	200.35
452.00	198.91
453.00	201.82
454.00	196.74
455.00	200.18
456.00	198.80
457.00	203.33
458.00	204.46
459.00	200.51
460.00	200.46
461.00	202.43
462.00	200.01
463.00	203.20
464.00	200.85
465.00	211.54
466.00	204.11
467.00	203.35
468.00	197.84
469.00	201.33
470.00	202.36
471.00	200.98
472.00	202.00
473.00	199.79
474.00	196.93
475.00	196.97
476.00	199.77
477.00	196.67
478.00	200.86
479.00	196.76
480.00	202.32
481.00	201.06
482.00	205.11
483.00	200.79
484.00	201.09
485.00	201.03
486.00	201.71
487.00	198.86
488.00	199.79
489.00	199.00
490.00	199.18
491.00	200.45
492.00	201.35
493.00	199.91
494.00	200.20
495.00	197.47
496.00	197.53
497.00	197.67
498.00	202.53
499.00	201.48
500.00	196.14
501.00	200.70
502.00	201.98
503.00	198.14
504.00	199.03
505.00	198.06
506.00	202.49
507.00	200.87
508.00	201.48
509.00	197.28
510.00	196.60
511.00	199.96
512.00	199.42
513.00	196.55
514.00	198.83
515.00	202.53
516.00	199.84
517.00	201.02
518.00	200.64
519.00	199.45
520.00	200.12
521.00	192.38
522.00	201.08
523.00	199.16
524.00	196.35
525.00	203.00
526.00	207.40
527.00	201.59
528.00	199.24
529.00	201.53
530.00	200.03
531.00	200.06
532.00	200.59
533.00	197.76
534.00	199.99
535.00	197.93
536.00	199.50
537.00	198.21
538.00	198.42
539.00	199.64
540.00	204.93
541.00	199.28
542.00	202.21
543.00	201.25
544.00	199.41
545.00	200.54
546.00	205.36
547.00	203.93
548.00	201.06
549.00	196.98
550.00	202.19
551.00	201.07
552.00	195.14
553.00	196.64
554.00	204.12
555.00	201.32
556.00	198.27
557.00	198.91
558.00	198.68
559.00	200.31
560.00	205.09
561.00	201.29
562.00	200.06
563.00	201.66
564.00	195.74
565.00	201.01
566.00	198.49
567.00	201.12
568.00	200.95
569.00	199.65
570.00	203.39
571.00	211.01
572.00	202.08
573.00	202.73
574.00	203.09
575.00	199.52
576.00	195.55
577.00	200.00
578.00	200.41
579.00	200.15
580.00	201.26
581.00	199.92
582.00	198.97
583.00	202.02
584.00	199.52
585.00	199.77
586.00	203.06
587.00	203.02
588.00	199.65
589.00	199.81
590.00	199.43
591.00	199.05
592.00	200.65
593.00	200.15
594.00	203.05
595.00	198.68
596.00	200.66
597.00	200.60
598.00	199.58
599.00	202.05
600.00	202.24
601.00	199.12
602.00	197.83
603.00	198.99
604.00	201.18
605.00	202.77
606.00	197.18
607.00	200.60
608.00	200.03
609.00	200.00
610.00	201.90
611.00	195.75
612.00	197.38
613.00	199.24
614.00	196.82
615.00	198.17
616.00	197.30
617.00	198.01
618.00	208.03
619.00	218.86
620.00	196.53
621.00	201.42
622.00	199.89
623.00	196.26
624.00	196.56
625.00	193.43
626.00	200.94
627.00	196.22
628.00	200.52
629.00	198.67
630.00	197.63
631.00	204.18
632.00	197.66
633.00	198.60
634.00	197.01
635.00	200.01
636.00	201.33
637.00	199.51
638.00	202.52
639.00	196.09
640.00	200.23
641.00	196.92
642.00	202.36
643.00	198.20
644.00	200.57
645.00	202.14
646.00	203.02
647.00	200.31
648.00	199.64
649.00	200.78
650.00	196.89
651.00	199.10
652.00	200.15
653.00	197.99
654.00	202.91
655.00	199.77
656.00	197.85
657.00	202.89
658.00	200.00
659.00	200.42
660.00	199.19
661.00	197.40
662.00	196.80
663.00	195.77
664.00	203.72
665.00	197.95
666.00	198.60
667.00	200.80
668.00	202.70
669.00	197.87
670.00	196.70
671.00	202.55
672.00	201.23
673.00	200.02
674.00	201.15
675.00	200.85
676.00	198.96
677.00	199.22
678.00	199.89
679.00	198.46
680.00	198.24
681.00	202.90
682.00	205.60
683.00	196.37
684.00	206.69
685.00	207.82
686.00	199.27
687.00	197.13
688.00	198.33
689.00	197.82
690.00	197.58
691.00	198.64
692.00	199.56
693.00	199.18
694.00	202.10
695.00	199.02
696.00	201.00
697.00	203.89
698.00	198.92
699.00	201.45
700.00	198.91
701.00	201.39
702.00	196.83
703.00	195.66
704.00	199.27
705.00	196.59
706.00	200.98
707.00	198.41
708.00	197.68
709.00	195.48
710.00	201.92
711.00	200.52
712.00	196.70
713.00	199.30
714.00	197.20
715.00	197.36
716.00	196.25
717.00	196.70
718.00	193.89
719.00	198.23
720.00	197.15
721.00	195.97
722.00	199.22
723.00	199.25
724.00	201.63
725.00	217.20
726.00	197.20
727.00	198.43
728.00	200.79
729.00	199.50
730.00	199.18
731.00	206.66
732.00	199.63
733.00	200.00
734.00	197.37
735.00	195.43
736.00	195.16
737.00	203.57
738.00	201.24
739.00	199.97
740.00	197.59
741.00	198.80
742.00	199.94
743.00	199.00
744.00	196.79
745.00	209.81
746.00	199.01
747.00	199.55
748.00	187.11
749.00	200.16
750.00	201.80
751.00	192.35
752.00	195.66
753.00	199.48
754.00	196.59
755.00	200.53
756.00	199.14
757.00	201.95
758.00	201.72
759.00	201.56
760.00	199.55
761.00	197.00
762.00	203.74
763.00	201.01
764.00	203.03
765.00	199.87
766.00	198.10
767.00	193.85
768.00	193.67
769.00	195.48
770.00	196.14
771.00	198.91
772.00	200.73
773.00	197.06
774.00	200.82
775.00	204.33
776.00	202.21
777.00	200.94
778.00	194.03
779.00	198.93
780.00	198.26
781.00	195.92
782.00	199.98
783.00	199.76
784.00	198.28
785.00	200.46
786.00	204.34
787.00	199.52
788.00	199.57
789.00	201.08
790.00	199.13
791.00	201.22
792.00	195.52
793.00	197.40
794.00	198.88
795.00	198.47
796.00	200.03
797.00	194.32
798.00	200.25
799.00	201.90
800.00	201.01
801.00	201.75
802.00	199.75
803.00	199.70
804.00	197.54
805.00	196.40
806.00	202.63
807.00	196.93
808.00	202.21
809.00	200.49
810.00	198.80
811.00	198.09
812.00	198.46
813.00	196.85
814.00	198.28
815.00	197.20
816.00	201.69
817.00	202.82
818.00	199.47
819.00	202.81
820.00	200.85
821.00	194.94
822.00	200.12
823.00	198.55
824.00	200.00
825.00	209.20
826.00	200.44
827.00	199.54
828.00	197.15
829.00	202.84
830.00	200.92
831.00	196.45
832.00	196.31
833.00	198.96
834.00	195.07
835.00	198.48
836.00	199.25
837.00	198.99
838.00	197.18
839.00	196.00
840.00	198.94
841.00	198.61
842.00	201.29
843.00	201.04
844.00	197.14
845.00	198.24
846.00	195.50
847.00	200.74
848.00	199.26
849.00	196.10
850.00	202.83
851.00	200.63
852.00	199.10
853.00	196.13
854.00	200.66
855.00	199.31
856.00	208.20
857.00	202.13
858.00	202.59
859.00	201.11
860.00	195.04
861.00	202.73
862.00	199.73
863.00	197.03
864.00	204.20
865.00	204.26
866.00	194.36
867.00	197.04
868.00	198.97
869.00	198.61
870.00	199.11
871.00	193.90
872.00	199.26
873.00	202.24
874.00	195.51
875.00	200.50
876.00	203.51
877.00	196.77
878.00	199.58
879.00	196.41
880.00	200.90
881.00	198.28
882.00	196.95
883.00	199.48
884.00	197.00
885.00	198.16
886.00	199.13
887.00	203.43
888.00	196.26
889.00	198.23
890.00	198.72
891.00	205.19
892.00	198.86
893.00	199.54
894.00	197.21
895.00	202.73
896.00	195.51
897.00	198.01
898.00	197.05
899.00	200.68
900.00	195.98
901.00	197.30
902.00	201.25
903.00	202.94
904.00	198.84
905.00	195.87
906.00	200.17
907.00	198.39
908.00	196.51
909.00	193.87
910.00	197.49
911.00	198.95
912.00	200.77
913.00	200.21
914.00	201.86
915.00	197.66
916.00	200.80
917.00	200.00
918.00	197.49
919.00	195.92
920.00	197.73
921.00	200.74
922.00	195.47
923.00	198.10
924.00	199.27
925.00	198.27
926.00	199.99
927.00	197.93
928.00	198.07
929.00	196.93
930.00	192.94
931.00	203.56
932.00	199.54
933.00	199.24
934.00	200.03
935.00	197.36
936.00	199.15
937.00	196.20
938.00	201.92
939.00	199.56
940.00	198.70
941.00	199.91
942.00	200.03
943.00	198.27
944.00	198.57
945.00	204.12
946.00	199.34
947.00	201.04
948.00	197.92
949.00	198.68
950.00	200.21
951.00	198.79
952.00	194.03
953.00	198.22
954.00	201.11
955.00	198.05
956.00	199.56
957.00	199.47
958.00	198.06
959.00	198.96
960.00	199.97
961.00	203.35
962.00	194.96
963.00	195.98
964.00	200.27
965.00	201.10
966.00	194.23
967.00	197.78
968.00	200.03
969.00	198.51
970.00	199.84
971.00	202.01
972.00	198.20
973.00	199.95
974.00	202.60
975.00	198.54
976.00	200.59
977.00	196.29
978.00	200.03
979.00	197.53
980.00	197.61
981.00	197.11
982.00	197.97
983.00	200.62
984.00	200.65
985.00	203.56
986.00	199.72
987.00	198.91
988.00	199.97
989.00	201.54
990.00	200.75
991.00	201.15
992.00	198.08
993.00	198.43
994.00	200.53
995.00	201.67
996.00	202.35
997.00	196.83
998.00	202.38
999.00	196.63
1000.00	203.12
>>>>>End Processed Spectral Data<<<<<
