SpectraSuite Data File
++++++++++++++++++++++++++++++++++++
Date: Thu Oct 13 15:03:32 CDT 2011
User: Helimak
Dark Spectrum Present: No
Reference Spectrum Present: No
Number of Sampled Component Spectra: 1
Spectrometers: USB2G37154
Integration Time (usec): 500000 (USB2G37154)
Spectra Averaged: 1 (USB2G37154)
Boxcar Smoothing: 0 (USB2G37154)
Correct for Electrical Dark: No (USB2G37154)
Strobe/Lamp Enabled: No (USB2G37154)
Correct for Detector Non-linearity: No (USB2G37154)
Correct for Stray Light: No (USB2G37154)
Number of Pixels in Processed Spectrum: 651
>>>>>Begin Processed Spectral Data<<<<<
350.00	194.60
351.00	205.52
352.00	192.85
353.00	196.26
354.00	196.75
355.00	203.72
356.00	202.77
357.00	196.76
358.00	206.59
359.00	198.49
360.00	200.12
361.00	198.22
362.00	206.61
363.00	199.21
364.00	203.84
365.00	201.10
366.00	197.31
367.00	198.83
368.00	199.32
369.00	196.89
370.00	196.06
371.00	200.65
372.00	198.83
373.00	201.80
374.00	201.54
375.00	209.69
376.00	198.76
377.00	202.32
378.00	206.71
379.00	196.83
380.00	200.35
381.00	204.20
382.00	200.11
383.00	200.87
384.00	201.29
385.00	203.47
386.00	198.92
387.00	204.17
388.00	200.38
389.00	201.18
390.00	195.32
391.00	202.83
392.00	198.70
393.00	200.94
394.00	201.17
395.00	195.22
396.00	200.90
397.00	203.60
398.00	202.91
399.00	201.53
400.00	198.18
401.00	195.12
402.00	204.90
403.00	201.28
404.00	201.86
405.00	203.93
406.00	198.01
407.00	201.46
408.00	200.44
409.00	207.74
410.00	203.96
411.00	199.19
412.00	200.49
413.00	203.86
414.00	201.52
415.00	202.04
416.00	201.39
417.00	204.24
418.00	201.84
419.00	202.27
420.00	201.20
421.00	201.53
422.00	204.41
423.00	197.67
424.00	200.57
425.00	201.54
426.00	198.09
427.00	209.21
428.00	203.62
429.00	203.31
430.00	201.64
431.00	201.80
432.00	212.81
433.00	206.92
434.00	204.41
435.00	197.88
436.00	206.35
437.00	221.14
438.00	203.11
439.00	198.32
440.00	203.03
441.00	207.04
442.00	199.49
443.00	205.08
444.00	200.51
445.00	200.11
446.00	202.43
447.00	200.33
448.00	201.41
449.00	199.00
450.00	201.30
451.00	202.34
452.00	203.20
453.00	204.52
454.00	202.87
455.00	202.79
456.00	209.86
457.00	202.16
458.00	201.21
459.00	200.67
460.00	203.30
461.00	198.38
462.00	203.20
463.00	201.26
464.00	200.98
465.00	217.49
466.00	219.57
467.00	198.03
468.00	204.08
469.00	201.92
470.00	203.79
471.00	200.63
472.00	200.58
473.00	200.72
474.00	204.21
475.00	202.39
476.00	201.26
477.00	204.30
478.00	204.20
479.00	199.58
480.00	202.06
481.00	200.57
482.00	204.47
483.00	202.45
484.00	197.38
485.00	199.12
486.00	202.37
487.00	200.78
488.00	201.99
489.00	200.97
490.00	203.35
491.00	199.18
492.00	204.39
493.00	204.95
494.00	198.58
495.00	197.50
496.00	203.48
497.00	200.66
498.00	196.94
499.00	200.10
500.00	196.84
501.00	200.43
502.00	206.01
503.00	199.68
504.00	200.13
505.00	205.23
506.00	202.19
507.00	206.22
508.00	205.58
509.00	201.60
510.00	199.40
511.00	203.00
512.00	204.97
513.00	202.20
514.00	201.88
515.00	202.09
516.00	197.97
517.00	203.73
518.00	202.27
519.00	203.01
520.00	207.11
521.00	203.53
522.00	204.78
523.00	198.05
524.00	201.93
525.00	204.99
526.00	205.56
527.00	197.79
528.00	202.05
529.00	207.32
530.00	201.92
531.00	199.06
532.00	200.16
533.00	198.40
534.00	200.22
535.00	203.10
536.00	199.37
537.00	203.59
538.00	201.50
539.00	196.81
540.00	200.70
541.00	195.70
542.00	200.99
543.00	200.94
544.00	204.44
545.00	201.93
546.00	200.93
547.00	206.18
548.00	198.28
549.00	198.95
550.00	199.96
551.00	201.06
552.00	195.90
553.00	200.88
554.00	204.99
555.00	199.90
556.00	201.85
557.00	197.26
558.00	199.57
559.00	200.46
560.00	208.48
561.00	205.26
562.00	200.18
563.00	200.83
564.00	201.32
565.00	201.72
566.00	205.01
567.00	203.37
568.00	198.96
569.00	202.16
570.00	217.17
571.00	226.72
572.00	200.70
573.00	213.17
574.00	208.90
575.00	195.03
576.00	199.31
577.00	198.96
578.00	196.16
579.00	202.30
580.00	197.35
581.00	197.87
582.00	203.31
583.00	197.70
584.00	198.18
585.00	202.14
586.00	201.82
587.00	198.10
588.00	198.39
589.00	200.51
590.00	201.94
591.00	197.98
592.00	196.68
593.00	201.63
594.00	200.10
595.00	199.47
596.00	203.95
597.00	199.25
598.00	201.62
599.00	204.22
600.00	197.29
601.00	201.29
602.00	197.93
603.00	203.35
604.00	198.40
605.00	204.15
606.00	203.58
607.00	201.24
608.00	199.81
609.00	200.94
610.00	198.95
611.00	202.86
612.00	202.27
613.00	205.06
614.00	198.84
615.00	200.60
616.00	199.97
617.00	198.98
618.00	207.76
619.00	239.33
620.00	202.32
621.00	211.57
622.00	201.31
623.00	198.90
624.00	200.64
625.00	201.96
626.00	197.96
627.00	199.52
628.00	202.13
629.00	206.76
630.00	200.20
631.00	202.83
632.00	198.40
633.00	201.84
634.00	204.25
635.00	202.97
636.00	206.44
637.00	202.04
638.00	202.77
639.00	199.73
640.00	209.58
641.00	200.69
642.00	203.09
643.00	201.26
644.00	200.66
645.00	195.22
646.00	206.97
647.00	198.15
648.00	199.28
649.00	197.56
650.00	199.70
651.00	200.36
652.00	199.86
653.00	197.59
654.00	199.10
655.00	197.15
656.00	198.80
657.00	200.18
658.00	202.00
659.00	202.98
660.00	203.94
661.00	197.87
662.00	196.14
663.00	197.81
664.00	210.17
665.00	196.10
666.00	196.57
667.00	209.38
668.00	211.30
669.00	197.65
670.00	197.70
671.00	201.09
672.00	194.16
673.00	201.04
674.00	200.16
675.00	200.56
676.00	201.53
677.00	202.68
678.00	202.74
679.00	196.90
680.00	202.11
681.00	212.27
682.00	213.70
683.00	200.61
684.00	218.71
685.00	216.55
686.00	197.81
687.00	199.52
688.00	198.66
689.00	200.15
690.00	197.91
691.00	200.41
692.00	201.24
693.00	198.66
694.00	197.14
695.00	195.92
696.00	202.00
697.00	210.00
698.00	204.57
699.00	198.42
700.00	197.71
701.00	199.01
702.00	199.18
703.00	202.66
704.00	198.12
705.00	201.17
706.00	197.87
707.00	199.74
708.00	197.56
709.00	202.85
710.00	198.91
711.00	202.13
712.00	198.62
713.00	201.36
714.00	198.58
715.00	202.16
716.00	202.05
717.00	199.04
718.00	196.35
719.00	195.97
720.00	201.92
721.00	195.96
722.00	202.10
723.00	202.36
724.00	203.39
725.00	254.87
726.00	199.60
727.00	196.50
728.00	203.02
729.00	200.48
730.00	199.67
731.00	202.84
732.00	198.87
733.00	198.88
734.00	204.69
735.00	203.31
736.00	199.86
737.00	201.58
738.00	197.34
739.00	205.68
740.00	199.98
741.00	200.52
742.00	196.04
743.00	201.96
744.00	196.75
745.00	222.06
746.00	200.39
747.00	194.89
748.00	202.28
749.00	202.62
750.00	197.16
751.00	199.87
752.00	196.86
753.00	198.22
754.00	199.40
755.00	199.39
756.00	196.42
757.00	196.57
758.00	204.53
759.00	210.57
760.00	201.84
761.00	199.20
762.00	204.88
763.00	216.01
764.00	195.06
765.00	204.75
766.00	201.10
767.00	201.61
768.00	199.73
769.00	198.68
770.00	201.23
771.00	203.76
772.00	196.15
773.00	199.39
774.00	196.81
775.00	215.01
776.00	200.22
777.00	199.95
778.00	202.06
779.00	208.73
780.00	199.15
781.00	198.61
782.00	202.71
783.00	198.12
784.00	198.65
785.00	201.50
786.00	200.60
787.00	205.20
788.00	199.36
789.00	206.04
790.00	202.17
791.00	204.27
792.00	197.24
793.00	197.44
794.00	201.55
795.00	192.59
796.00	195.95
797.00	199.98
798.00	205.26
799.00	201.62
800.00	200.43
801.00	197.57
802.00	201.20
803.00	210.00
804.00	197.70
805.00	196.71
806.00	202.43
807.00	197.70
808.00	207.25
809.00	202.93
810.00	202.92
811.00	198.51
812.00	198.45
813.00	203.69
814.00	203.40
815.00	195.19
816.00	199.13
817.00	207.01
818.00	201.68
819.00	203.07
820.00	200.41
821.00	200.05
822.00	204.86
823.00	200.97
824.00	196.71
825.00	217.75
826.00	200.45
827.00	201.35
828.00	197.82
829.00	200.67
830.00	201.75
831.00	200.18
832.00	199.66
833.00	200.64
834.00	197.36
835.00	201.73
836.00	201.80
837.00	204.34
838.00	202.83
839.00	197.89
840.00	200.59
841.00	202.21
842.00	202.23
843.00	204.39
844.00	197.97
845.00	202.30
846.00	199.81
847.00	204.61
848.00	201.22
849.00	196.84
850.00	201.07
851.00	197.98
852.00	202.17
853.00	197.68
854.00	200.87
855.00	202.44
856.00	219.37
857.00	203.28
858.00	212.98
859.00	201.46
860.00	195.29
861.00	206.21
862.00	199.37
863.00	198.78
864.00	206.61
865.00	199.67
866.00	200.09
867.00	200.13
868.00	198.97
869.00	202.58
870.00	202.05
871.00	201.19
872.00	205.69
873.00	202.92
874.00	196.82
875.00	197.11
876.00	198.81
877.00	197.53
878.00	198.57
879.00	200.98
880.00	203.90
881.00	201.64
882.00	197.73
883.00	202.58
884.00	198.01
885.00	195.77
886.00	197.25
887.00	205.07
888.00	197.16
889.00	201.59
890.00	203.61
891.00	209.01
892.00	205.32
893.00	200.80
894.00	200.00
895.00	215.72
896.00	198.43
897.00	197.04
898.00	195.85
899.00	199.47
900.00	203.72
901.00	200.43
902.00	197.68
903.00	213.42
904.00	203.21
905.00	196.03
906.00	211.39
907.00	199.54
908.00	197.17
909.00	194.78
910.00	199.24
911.00	200.70
912.00	200.47
913.00	195.59
914.00	204.03
915.00	201.61
916.00	201.03
917.00	201.12
918.00	202.34
919.00	206.11
920.00	199.15
921.00	207.63
922.00	196.39
923.00	197.02
924.00	196.52
925.00	202.73
926.00	200.00
927.00	203.69
928.00	194.10
929.00	198.96
930.00	203.09
931.00	197.26
932.00	196.54
933.00	199.57
934.00	197.07
935.00	193.35
936.00	199.06
937.00	202.84
938.00	201.29
939.00	201.12
940.00	200.55
941.00	197.99
942.00	207.84
943.00	202.66
944.00	197.84
945.00	214.13
946.00	200.09
947.00	201.99
948.00	202.87
949.00	201.40
950.00	204.35
951.00	202.63
952.00	196.03
953.00	198.95
954.00	196.59
955.00	206.46
956.00	201.45
957.00	199.98
958.00	201.85
959.00	198.90
960.00	201.48
961.00	198.98
962.00	200.32
963.00	200.30
964.00	199.66
965.00	201.24
966.00	197.12
967.00	206.48
968.00	201.98
969.00	199.66
970.00	199.91
971.00	204.70
972.00	201.46
973.00	211.88
974.00	198.88
975.00	201.04
976.00	203.34
977.00	202.30
978.00	200.26
979.00	200.70
980.00	198.71
981.00	198.41
982.00	202.88
983.00	204.85
984.00	201.33
985.00	203.85
986.00	199.21
987.00	202.73
988.00	209.24
989.00	202.86
990.00	198.74
991.00	204.39
992.00	200.65
993.00	205.37
994.00	202.15
995.00	199.19
996.00	199.14
997.00	202.69
998.00	204.90
999.00	204.80
1000.00	200.14
>>>>>End Processed Spectral Data<<<<<
