SpectraSuite Data File
++++++++++++++++++++++++++++++++++++
Date: Tue Oct 18 15:10:01 CDT 2011
User: Helimak
Dark Spectrum Present: No
Reference Spectrum Present: No
Number of Sampled Component Spectra: 1
Spectrometers: USB2G37154
Integration Time (usec): 200000 (USB2G37154)
Spectra Averaged: 1 (USB2G37154)
Boxcar Smoothing: 0 (USB2G37154)
Correct for Electrical Dark: No (USB2G37154)
Strobe/Lamp Enabled: No (USB2G37154)
Correct for Detector Non-linearity: No (USB2G37154)
Correct for Stray Light: No (USB2G37154)
Number of Pixels in Processed Spectrum: 651
>>>>>Begin Processed Spectral Data<<<<<
350.00	202.04
351.00	198.87
352.00	200.44
353.00	198.79
354.00	197.23
355.00	203.42
356.00	201.46
357.00	200.65
358.00	202.08
359.00	200.60
360.00	200.78
361.00	199.14
362.00	207.59
363.00	200.56
364.00	208.27
365.00	203.87
366.00	203.59
367.00	201.98
368.00	202.45
369.00	205.37
370.00	203.03
371.00	205.53
372.00	206.23
373.00	199.08
374.00	209.13
375.00	208.55
376.00	197.23
377.00	201.46
378.00	206.68
379.00	202.78
380.00	204.27
381.00	202.30
382.00	203.42
383.00	206.99
384.00	201.79
385.00	201.54
386.00	203.92
387.00	204.30
388.00	203.01
389.00	203.70
390.00	202.01
391.00	206.23
392.00	201.86
393.00	205.95
394.00	213.95
395.00	204.65
396.00	206.03
397.00	202.38
398.00	204.47
399.00	203.99
400.00	206.21
401.00	205.26
402.00	204.71
403.00	206.61
404.00	212.27
405.00	207.95
406.00	207.00
407.00	205.04
408.00	210.50
409.00	205.72
410.00	207.46
411.00	202.93
412.00	205.42
413.00	206.90
414.00	208.46
415.00	207.39
416.00	207.17
417.00	211.19
418.00	206.91
419.00	208.01
420.00	210.28
421.00	206.83
422.00	210.40
423.00	205.59
424.00	203.51
425.00	208.82
426.00	205.77
427.00	208.05
428.00	202.35
429.00	202.86
430.00	207.10
431.00	203.82
432.00	211.39
433.00	210.86
434.00	212.45
435.00	248.15
436.00	231.45
437.00	214.34
438.00	206.98
439.00	205.95
440.00	208.76
441.00	207.34
442.00	208.27
443.00	204.68
444.00	204.52
445.00	208.26
446.00	204.96
447.00	201.95
448.00	209.13
449.00	210.90
450.00	207.54
451.00	211.46
452.00	206.58
453.00	204.32
454.00	207.68
455.00	208.66
456.00	212.15
457.00	205.25
458.00	208.56
459.00	206.96
460.00	211.20
461.00	205.56
462.00	210.66
463.00	206.08
464.00	206.12
465.00	214.81
466.00	215.91
467.00	207.75
468.00	204.20
469.00	208.07
470.00	204.63
471.00	212.49
472.00	205.77
473.00	211.73
474.00	209.03
475.00	203.42
476.00	209.22
477.00	206.19
478.00	208.13
479.00	202.42
480.00	210.79
481.00	208.97
482.00	210.56
483.00	209.10
484.00	214.96
485.00	220.92
486.00	223.86
487.00	220.42
488.00	223.16
489.00	225.04
490.00	224.40
491.00	220.71
492.00	221.68
493.00	219.01
494.00	216.83
495.00	217.06
496.00	218.22
497.00	216.31
498.00	212.04
499.00	210.41
500.00	205.44
501.00	208.17
502.00	207.00
503.00	203.97
504.00	207.49
505.00	202.95
506.00	207.68
507.00	208.08
508.00	208.37
509.00	203.99
510.00	209.12
511.00	209.02
512.00	204.15
513.00	203.56
514.00	205.30
515.00	203.24
516.00	209.23
517.00	205.62
518.00	203.74
519.00	204.54
520.00	207.60
521.00	206.64
522.00	207.46
523.00	204.39
524.00	205.52
525.00	205.96
526.00	207.42
527.00	200.36
528.00	208.97
529.00	208.15
530.00	206.92
531.00	207.25
532.00	206.52
533.00	206.11
534.00	206.62
535.00	207.79
536.00	208.12
537.00	210.90
538.00	214.77
539.00	227.67
540.00	235.21
541.00	270.15
542.00	322.67
543.00	332.70
544.00	324.45
545.00	313.39
546.00	322.07
547.00	247.70
548.00	231.06
549.00	236.58
550.00	226.43
551.00	227.06
552.00	224.83
553.00	217.57
554.00	211.73
555.00	210.42
556.00	207.67
557.00	207.78
558.00	209.31
559.00	203.90
560.00	208.94
561.00	206.76
562.00	207.07
563.00	203.49
564.00	203.45
565.00	205.84
566.00	204.90
567.00	203.40
568.00	201.99
569.00	207.34
570.00	211.69
571.00	214.81
572.00	206.52
573.00	209.51
574.00	207.75
575.00	202.46
576.00	208.74
577.00	214.55
578.00	208.99
579.00	217.96
580.00	215.99
581.00	220.32
582.00	218.45
583.00	229.67
584.00	231.16
585.00	222.30
586.00	225.61
587.00	238.13
588.00	231.20
589.00	223.10
590.00	218.44
591.00	219.04
592.00	213.16
593.00	223.18
594.00	213.03
595.00	209.60
596.00	208.46
597.00	207.54
598.00	211.88
599.00	214.86
600.00	211.08
601.00	212.10
602.00	207.77
603.00	209.10
604.00	204.24
605.00	207.52
606.00	203.78
607.00	212.59
608.00	215.02
609.00	218.89
610.00	241.08
611.00	350.11
612.00	313.20
613.00	261.19
614.00	246.72
615.00	233.76
616.00	219.51
617.00	214.98
618.00	219.90
619.00	231.68
620.00	219.28
621.00	225.09
622.00	216.27
623.00	215.59
624.00	220.21
625.00	215.09
626.00	212.81
627.00	211.17
628.00	210.65
629.00	214.29
630.00	211.66
631.00	225.82
632.00	216.52
633.00	211.47
634.00	203.98
635.00	210.00
636.00	207.17
637.00	200.55
638.00	203.19
639.00	198.63
640.00	205.87
641.00	204.93
642.00	207.84
643.00	205.39
644.00	205.87
645.00	205.82
646.00	212.05
647.00	206.33
648.00	204.17
649.00	207.97
650.00	207.88
651.00	207.90
652.00	207.51
653.00	208.79
654.00	204.22
655.00	204.76
656.00	201.39
657.00	198.10
658.00	204.00
659.00	202.87
660.00	206.19
661.00	201.17
662.00	204.10
663.00	203.41
664.00	213.38
665.00	202.80
666.00	205.75
667.00	205.10
668.00	211.51
669.00	200.81
670.00	200.62
671.00	198.00
672.00	202.91
673.00	202.95
674.00	202.18
675.00	204.05
676.00	200.94
677.00	207.21
678.00	205.38
679.00	205.80
680.00	206.00
681.00	207.13
682.00	208.65
683.00	204.70
684.00	209.88
685.00	205.95
686.00	202.04
687.00	203.21
688.00	203.43
689.00	208.31
690.00	204.33
691.00	201.87
692.00	199.89
693.00	201.69
694.00	202.81
695.00	199.02
696.00	205.00
697.00	209.97
698.00	205.90
699.00	205.54
700.00	207.44
701.00	204.05
702.00	203.39
703.00	204.45
704.00	203.23
705.00	207.40
706.00	205.92
707.00	208.41
708.00	206.14
709.00	209.42
710.00	212.79
711.00	204.97
712.00	204.84
713.00	207.69
714.00	207.67
715.00	205.17
716.00	202.57
717.00	206.45
718.00	204.02
719.00	204.60
720.00	203.40
721.00	206.22
722.00	202.89
723.00	203.61
724.00	204.50
725.00	224.05
726.00	201.55
727.00	201.44
728.00	203.32
729.00	201.74
730.00	202.50
731.00	205.42
732.00	201.82
733.00	203.14
734.00	208.09
735.00	200.70
736.00	198.57
737.00	201.43
738.00	203.06
739.00	204.33
740.00	203.69
741.00	201.84
742.00	203.00
743.00	204.97
744.00	202.99
745.00	211.77
746.00	200.59
747.00	206.23
748.00	202.29
749.00	201.62
750.00	200.65
751.00	203.24
752.00	199.35
753.00	203.59
754.00	201.22
755.00	201.85
756.00	202.35
757.00	202.60
758.00	205.87
759.00	205.80
760.00	199.40
761.00	206.06
762.00	206.82
763.00	207.75
764.00	205.05
765.00	201.13
766.00	203.21
767.00	202.44
768.00	202.27
769.00	201.84
770.00	200.87
771.00	204.34
772.00	205.06
773.00	203.67
774.00	204.30
775.00	208.03
776.00	200.44
777.00	199.97
778.00	204.01
779.00	206.28
780.00	202.33
781.00	199.52
782.00	205.28
783.00	202.21
784.00	201.09
785.00	206.33
786.00	201.00
787.00	199.59
788.00	205.58
789.00	208.02
790.00	197.28
791.00	206.89
792.00	205.26
793.00	204.46
794.00	200.73
795.00	200.48
796.00	203.34
797.00	203.24
798.00	205.90
799.00	205.87
800.00	206.93
801.00	202.19
802.00	202.22
803.00	206.98
804.00	203.74
805.00	200.67
806.00	201.92
807.00	204.03
808.00	204.86
809.00	205.22
810.00	201.24
811.00	203.16
812.00	202.04
813.00	204.74
814.00	205.88
815.00	203.08
816.00	199.22
817.00	205.60
818.00	200.82
819.00	206.50
820.00	202.17
821.00	203.95
822.00	206.58
823.00	205.35
824.00	201.27
825.00	212.06
826.00	200.41
827.00	202.05
828.00	196.27
829.00	202.17
830.00	208.38
831.00	203.49
832.00	202.87
833.00	204.45
834.00	205.86
835.00	202.62
836.00	202.68
837.00	199.56
838.00	204.33
839.00	202.10
840.00	207.31
841.00	204.75
842.00	205.91
843.00	207.13
844.00	199.02
845.00	203.11
846.00	206.16
847.00	202.60
848.00	204.98
849.00	203.80
850.00	205.16
851.00	203.21
852.00	207.43
853.00	203.16
854.00	200.94
855.00	205.75
856.00	214.81
857.00	202.25
858.00	204.88
859.00	201.03
860.00	199.77
861.00	205.24
862.00	202.17
863.00	202.84
864.00	207.25
865.00	204.26
866.00	200.73
867.00	205.06
868.00	204.04
869.00	202.97
870.00	203.33
871.00	203.22
872.00	202.08
873.00	204.14
874.00	202.66
875.00	202.20
876.00	203.81
877.00	201.33
878.00	202.93
879.00	201.90
880.00	201.91
881.00	204.28
882.00	202.95
883.00	202.46
884.00	203.01
885.00	203.47
886.00	202.80
887.00	205.47
888.00	199.93
889.00	204.21
890.00	206.82
891.00	211.24
892.00	202.71
893.00	204.45
894.00	201.22
895.00	204.84
896.00	202.96
897.00	203.44
898.00	204.60
899.00	202.84
900.00	207.75
901.00	205.99
902.00	203.57
903.00	209.42
904.00	200.90
905.00	199.10
906.00	210.56
907.00	201.92
908.00	203.35
909.00	203.64
910.00	205.00
911.00	203.97
912.00	203.70
913.00	208.71
914.00	202.43
915.00	200.09
916.00	203.22
917.00	206.73
918.00	203.81
919.00	204.44
920.00	208.42
921.00	201.76
922.00	204.14
923.00	202.04
924.00	204.84
925.00	203.80
926.00	204.01
927.00	201.96
928.00	202.39
929.00	206.05
930.00	199.85
931.00	202.94
932.00	201.62
933.00	200.83
934.00	205.47
935.00	202.64
936.00	201.91
937.00	203.93
938.00	199.76
939.00	205.03
940.00	197.06
941.00	203.97
942.00	206.98
943.00	204.56
944.00	208.56
945.00	206.69
946.00	199.19
947.00	199.15
948.00	203.17
949.00	204.01
950.00	201.31
951.00	207.23
952.00	195.02
953.00	200.48
954.00	199.14
955.00	204.36
956.00	205.34
957.00	207.35
958.00	202.81
959.00	201.95
960.00	203.25
961.00	200.45
962.00	205.29
963.00	207.31
964.00	201.60
965.00	201.70
966.00	205.13
967.00	203.10
968.00	203.99
969.00	206.33
970.00	202.85
971.00	205.20
972.00	206.11
973.00	208.16
974.00	201.57
975.00	202.17
976.00	201.69
977.00	203.61
978.00	207.68
979.00	204.05
980.00	202.85
981.00	202.16
982.00	203.65
983.00	207.76
984.00	202.28
985.00	203.17
986.00	203.22
987.00	202.19
988.00	204.74
989.00	206.19
990.00	205.31
991.00	203.30
992.00	206.31
993.00	200.96
994.00	202.50
995.00	205.32
996.00	203.94
997.00	204.60
998.00	205.73
999.00	207.43
1000.00	202.24
>>>>>End Processed Spectral Data<<<<<
