SpectraSuite Data File
++++++++++++++++++++++++++++++++++++
Date: Tue Oct 18 15:10:02 CDT 2011
User: Helimak
Dark Spectrum Present: No
Reference Spectrum Present: No
Number of Sampled Component Spectra: 1
Spectrometers: USB2G37154
Integration Time (usec): 200000 (USB2G37154)
Spectra Averaged: 1 (USB2G37154)
Boxcar Smoothing: 0 (USB2G37154)
Correct for Electrical Dark: No (USB2G37154)
Strobe/Lamp Enabled: No (USB2G37154)
Correct for Detector Non-linearity: No (USB2G37154)
Correct for Stray Light: No (USB2G37154)
Number of Pixels in Processed Spectrum: 651
>>>>>Begin Processed Spectral Data<<<<<
350.00	201.30
351.00	208.28
352.00	207.43
353.00	203.39
354.00	204.77
355.00	202.05
356.00	200.69
357.00	197.28
358.00	206.64
359.00	207.29
360.00	205.36
361.00	197.38
362.00	203.81
363.00	204.06
364.00	202.05
365.00	205.07
366.00	203.28
367.00	202.83
368.00	201.83
369.00	202.97
370.00	204.08
371.00	202.59
372.00	204.15
373.00	201.05
374.00	197.04
375.00	208.50
376.00	201.13
377.00	204.50
378.00	207.84
379.00	202.40
380.00	205.23
381.00	207.27
382.00	206.02
383.00	204.10
384.00	203.09
385.00	204.17
386.00	205.01
387.00	203.58
388.00	203.54
389.00	200.12
390.00	202.60
391.00	206.62
392.00	200.01
393.00	205.04
394.00	211.64
395.00	204.88
396.00	204.94
397.00	204.28
398.00	201.76
399.00	205.72
400.00	202.44
401.00	201.66
402.00	206.69
403.00	203.74
404.00	209.81
405.00	207.80
406.00	200.00
407.00	204.12
408.00	206.20
409.00	211.76
410.00	205.72
411.00	203.92
412.00	209.12
413.00	199.84
414.00	200.19
415.00	205.53
416.00	204.27
417.00	204.94
418.00	204.81
419.00	204.41
420.00	206.19
421.00	202.81
422.00	205.18
423.00	206.82
424.00	208.24
425.00	204.84
426.00	203.69
427.00	208.95
428.00	210.39
429.00	202.55
430.00	202.44
431.00	206.35
432.00	212.02
433.00	206.82
434.00	208.32
435.00	250.75
436.00	227.78
437.00	217.05
438.00	209.75
439.00	204.78
440.00	209.84
441.00	210.27
442.00	207.74
443.00	211.21
444.00	207.92
445.00	208.82
446.00	206.93
447.00	206.27
448.00	209.76
449.00	206.94
450.00	207.96
451.00	210.30
452.00	208.05
453.00	206.90
454.00	198.98
455.00	208.75
456.00	212.40
457.00	210.14
458.00	208.96
459.00	205.99
460.00	204.86
461.00	205.95
462.00	209.21
463.00	208.63
464.00	206.98
465.00	212.35
466.00	215.44
467.00	204.93
468.00	207.07
469.00	205.49
470.00	206.24
471.00	204.89
472.00	210.46
473.00	206.66
474.00	207.42
475.00	209.69
476.00	211.34
477.00	205.37
478.00	205.94
479.00	208.12
480.00	208.93
481.00	210.06
482.00	205.13
483.00	212.39
484.00	214.29
485.00	220.82
486.00	221.58
487.00	225.05
488.00	219.37
489.00	226.04
490.00	218.38
491.00	224.85
492.00	220.73
493.00	220.18
494.00	217.76
495.00	213.60
496.00	214.05
497.00	211.34
498.00	214.05
499.00	211.22
500.00	204.46
501.00	207.03
502.00	204.99
503.00	207.51
504.00	205.57
505.00	202.55
506.00	207.37
507.00	208.60
508.00	207.09
509.00	205.89
510.00	204.76
511.00	206.99
512.00	205.80
513.00	204.18
514.00	206.78
515.00	208.35
516.00	203.96
517.00	206.01
518.00	203.59
519.00	209.23
520.00	207.08
521.00	210.02
522.00	207.90
523.00	205.49
524.00	206.32
525.00	208.04
526.00	203.10
527.00	203.03
528.00	202.63
529.00	209.43
530.00	205.64
531.00	203.73
532.00	207.70
533.00	204.15
534.00	207.00
535.00	210.02
536.00	213.16
537.00	204.80
538.00	219.99
539.00	220.45
540.00	237.27
541.00	262.24
542.00	314.99
543.00	329.35
544.00	324.09
545.00	306.80
546.00	308.62
547.00	248.59
548.00	232.09
549.00	234.49
550.00	232.64
551.00	227.04
552.00	218.47
553.00	215.06
554.00	208.80
555.00	204.52
556.00	209.81
557.00	204.28
558.00	208.94
559.00	206.46
560.00	205.39
561.00	205.33
562.00	203.23
563.00	201.97
564.00	202.21
565.00	202.35
566.00	204.04
567.00	206.84
568.00	200.87
569.00	206.73
570.00	206.53
571.00	213.94
572.00	205.54
573.00	210.33
574.00	206.12
575.00	207.42
576.00	204.77
577.00	211.89
578.00	210.15
579.00	214.52
580.00	222.24
581.00	217.38
582.00	222.81
583.00	229.98
584.00	225.75
585.00	223.32
586.00	232.36
587.00	232.21
588.00	228.01
589.00	224.74
590.00	212.33
591.00	214.12
592.00	214.62
593.00	218.29
594.00	221.02
595.00	208.33
596.00	205.81
597.00	206.26
598.00	210.87
599.00	211.59
600.00	212.93
601.00	211.98
602.00	205.61
603.00	204.07
604.00	205.14
605.00	206.21
606.00	208.13
607.00	208.34
608.00	212.14
609.00	213.98
610.00	238.21
611.00	348.28
612.00	299.75
613.00	257.94
614.00	241.07
615.00	231.07
616.00	224.96
617.00	219.99
618.00	221.73
619.00	232.83
620.00	218.62
621.00	222.34
622.00	215.59
623.00	213.84
624.00	215.16
625.00	210.25
626.00	215.70
627.00	210.09
628.00	209.28
629.00	214.56
630.00	206.05
631.00	221.22
632.00	215.32
633.00	209.19
634.00	208.03
635.00	204.92
636.00	205.29
637.00	206.37
638.00	198.42
639.00	203.40
640.00	205.45
641.00	207.78
642.00	209.91
643.00	206.98
644.00	204.68
645.00	203.09
646.00	212.93
647.00	205.54
648.00	206.18
649.00	206.99
650.00	213.94
651.00	209.40
652.00	205.42
653.00	201.18
654.00	192.94
655.00	202.97
656.00	205.56
657.00	205.14
658.00	204.99
659.00	205.12
660.00	207.52
661.00	201.60
662.00	204.50
663.00	207.57
664.00	210.96
665.00	207.54
666.00	202.02
667.00	208.75
668.00	206.38
669.00	205.69
670.00	200.69
671.00	206.84
672.00	201.10
673.00	198.96
674.00	203.12
675.00	204.97
676.00	206.06
677.00	209.32
678.00	205.13
679.00	205.93
680.00	203.07
681.00	207.84
682.00	213.28
683.00	203.78
684.00	207.89
685.00	209.57
686.00	203.97
687.00	202.81
688.00	205.28
689.00	204.43
690.00	202.64
691.00	201.43
692.00	201.70
693.00	206.93
694.00	203.15
695.00	201.07
696.00	203.00
697.00	207.85
698.00	202.89
699.00	204.74
700.00	202.00
701.00	203.41
702.00	205.71
703.00	205.63
704.00	203.86
705.00	207.72
706.00	209.14
707.00	209.24
708.00	204.05
709.00	209.28
710.00	207.71
711.00	206.47
712.00	208.60
713.00	212.57
714.00	205.86
715.00	206.13
716.00	204.97
717.00	202.53
718.00	203.17
719.00	201.89
720.00	210.73
721.00	202.78
722.00	202.43
723.00	205.70
724.00	202.73
725.00	217.24
726.00	200.04
727.00	197.79
728.00	202.56
729.00	200.40
730.00	204.65
731.00	200.37
732.00	205.82
733.00	201.94
734.00	205.85
735.00	196.95
736.00	205.72
737.00	206.78
738.00	202.80
739.00	205.32
740.00	203.50
741.00	199.74
742.00	209.01
743.00	200.00
744.00	202.15
745.00	211.86
746.00	205.17
747.00	198.60
748.00	205.97
749.00	199.11
750.00	203.54
751.00	199.23
752.00	198.73
753.00	210.08
754.00	201.13
755.00	204.41
756.00	205.62
757.00	204.67
758.00	207.06
759.00	204.45
760.00	199.69
761.00	199.85
762.00	203.31
763.00	210.16
764.00	198.03
765.00	200.93
766.00	201.24
767.00	201.10
768.00	202.46
769.00	205.19
770.00	202.72
771.00	202.44
772.00	201.89
773.00	204.54
774.00	202.13
775.00	204.87
776.00	200.89
777.00	201.70
778.00	207.01
779.00	208.77
780.00	198.96
781.00	201.60
782.00	202.71
783.00	200.73
784.00	197.47
785.00	205.02
786.00	202.86
787.00	204.45
788.00	202.14
789.00	209.04
790.00	201.86
791.00	204.98
792.00	199.42
793.00	203.66
794.00	204.07
795.00	201.85
796.00	200.78
797.00	202.56
798.00	205.27
799.00	199.85
800.00	201.86
801.00	200.25
802.00	203.19
803.00	206.13
804.00	202.75
805.00	202.21
806.00	204.23
807.00	199.81
808.00	201.13
809.00	208.38
810.00	205.07
811.00	204.21
812.00	201.54
813.00	205.94
814.00	201.29
815.00	206.93
816.00	203.64
817.00	206.56
818.00	202.24
819.00	206.94
820.00	200.12
821.00	205.09
822.00	203.77
823.00	204.09
824.00	200.91
825.00	209.24
826.00	202.70
827.00	208.83
828.00	199.92
829.00	201.24
830.00	201.44
831.00	204.90
832.00	203.01
833.00	204.03
834.00	207.71
835.00	205.11
836.00	204.55
837.00	205.76
838.00	201.72
839.00	200.04
840.00	203.50
841.00	204.66
842.00	204.56
843.00	208.08
844.00	201.91
845.00	204.42
846.00	203.75
847.00	206.97
848.00	203.29
849.00	204.18
850.00	204.19
851.00	203.02
852.00	202.47
853.00	206.33
854.00	205.79
855.00	204.41
856.00	212.39
857.00	205.42
858.00	208.33
859.00	202.37
860.00	206.10
861.00	207.11
862.00	203.45
863.00	199.98
864.00	207.90
865.00	201.61
866.00	204.56
867.00	203.39
868.00	202.98
869.00	203.18
870.00	203.36
871.00	208.95
872.00	205.13
873.00	199.11
874.00	199.91
875.00	199.14
876.00	203.40
877.00	201.20
878.00	202.19
879.00	200.55
880.00	201.99
881.00	207.31
882.00	200.27
883.00	203.85
884.00	200.00
885.00	201.03
886.00	202.43
887.00	203.77
888.00	201.95
889.00	194.39
890.00	205.11
891.00	204.18
892.00	206.04
893.00	203.98
894.00	204.84
895.00	209.80
896.00	203.08
897.00	198.22
898.00	201.93
899.00	200.70
900.00	206.06
901.00	201.51
902.00	203.48
903.00	207.92
904.00	200.59
905.00	203.01
906.00	205.34
907.00	202.42
908.00	208.48
909.00	202.38
910.00	203.38
911.00	201.79
912.00	203.34
913.00	203.66
914.00	199.23
915.00	202.07
916.00	201.73
917.00	198.67
918.00	202.62
919.00	206.16
920.00	203.13
921.00	201.51
922.00	202.97
923.00	203.14
924.00	203.69
925.00	203.89
926.00	199.02
927.00	200.90
928.00	204.60
929.00	203.33
930.00	205.85
931.00	201.69
932.00	201.10
933.00	204.03
934.00	199.13
935.00	199.63
936.00	202.82
937.00	204.92
938.00	204.23
939.00	203.17
940.00	207.06
941.00	202.59
942.00	205.93
943.00	204.74
944.00	205.06
945.00	206.23
946.00	203.62
947.00	203.16
948.00	202.20
949.00	205.27
950.00	204.35
951.00	202.36
952.00	201.00
953.00	204.95
954.00	198.54
955.00	201.68
956.00	201.40
957.00	201.85
958.00	204.37
959.00	204.97
960.00	202.57
961.00	204.63
962.00	204.13
963.00	201.85
964.00	201.37
965.00	199.42
966.00	203.10
967.00	206.06
968.00	202.02
969.00	201.64
970.00	204.32
971.00	204.81
972.00	203.77
973.00	206.86
974.00	202.78
975.00	196.39
976.00	208.74
977.00	197.65
978.00	203.95
979.00	205.41
980.00	201.59
981.00	199.52
982.00	201.33
983.00	204.86
984.00	201.23
985.00	209.96
986.00	204.17
987.00	200.11
988.00	204.64
989.00	201.62
990.00	202.54
991.00	201.99
992.00	204.46
993.00	205.66
994.00	199.18
995.00	202.91
996.00	202.11
997.00	205.59
998.00	203.78
999.00	205.77
1000.00	202.02
>>>>>End Processed Spectral Data<<<<<
