SpectraSuite Data File
++++++++++++++++++++++++++++++++++++
Date: Tue Oct 18 15:10:01 CDT 2011
User: Helimak
Dark Spectrum Present: No
Reference Spectrum Present: No
Number of Sampled Component Spectra: 1
Spectrometers: USB2G37154
Integration Time (usec): 200000 (USB2G37154)
Spectra Averaged: 1 (USB2G37154)
Boxcar Smoothing: 0 (USB2G37154)
Correct for Electrical Dark: No (USB2G37154)
Strobe/Lamp Enabled: No (USB2G37154)
Correct for Detector Non-linearity: No (USB2G37154)
Correct for Stray Light: No (USB2G37154)
Number of Pixels in Processed Spectrum: 651
>>>>>Begin Processed Spectral Data<<<<<
350.00	201.71
351.00	197.76
352.00	199.34
353.00	200.72
354.00	200.72
355.00	199.90
356.00	204.83
357.00	206.41
358.00	206.12
359.00	205.42
360.00	202.28
361.00	199.88
362.00	207.12
363.00	201.34
364.00	201.79
365.00	202.82
366.00	203.95
367.00	201.86
368.00	204.40
369.00	206.07
370.00	200.08
371.00	201.41
372.00	203.95
373.00	204.19
374.00	204.20
375.00	206.50
376.00	202.58
377.00	205.43
378.00	206.03
379.00	201.35
380.00	203.52
381.00	204.43
382.00	206.99
383.00	202.84
384.00	204.43
385.00	203.35
386.00	208.04
387.00	203.77
388.00	204.27
389.00	202.15
390.00	204.89
391.00	208.92
392.00	203.39
393.00	205.09
394.00	206.24
395.00	207.40
396.00	203.94
397.00	198.17
398.00	203.42
399.00	205.85
400.00	203.05
401.00	211.40
402.00	203.24
403.00	209.27
404.00	210.86
405.00	210.34
406.00	205.01
407.00	204.91
408.00	203.79
409.00	204.83
410.00	202.09
411.00	204.02
412.00	208.36
413.00	206.12
414.00	205.87
415.00	207.04
416.00	203.97
417.00	204.87
418.00	204.06
419.00	205.10
420.00	206.09
421.00	205.39
422.00	206.78
423.00	207.03
424.00	209.92
425.00	205.75
426.00	206.93
427.00	207.00
428.00	206.08
429.00	205.84
430.00	205.92
431.00	205.08
432.00	207.52
433.00	210.85
434.00	210.37
435.00	252.15
436.00	228.97
437.00	213.51
438.00	202.04
439.00	204.27
440.00	203.22
441.00	208.80
442.00	206.20
443.00	206.23
444.00	204.86
445.00	204.86
446.00	206.37
447.00	203.85
448.00	206.68
449.00	205.05
450.00	207.56
451.00	207.34
452.00	209.13
453.00	206.76
454.00	209.55
455.00	209.26
456.00	212.19
457.00	207.15
458.00	209.93
459.00	208.83
460.00	209.32
461.00	204.05
462.00	208.36
463.00	207.53
464.00	205.51
465.00	211.04
466.00	213.39
467.00	209.38
468.00	204.12
469.00	208.20
470.00	207.95
471.00	208.93
472.00	210.31
473.00	203.94
474.00	208.90
475.00	207.91
476.00	205.22
477.00	202.66
478.00	200.74
479.00	203.94
480.00	209.84
481.00	207.90
482.00	211.56
483.00	211.52
484.00	215.18
485.00	218.26
486.00	222.51
487.00	226.64
488.00	223.76
489.00	225.98
490.00	225.51
491.00	219.25
492.00	217.63
493.00	221.98
494.00	219.62
495.00	216.08
496.00	214.26
497.00	215.26
498.00	211.04
499.00	214.64
500.00	206.09
501.00	205.68
502.00	205.99
503.00	208.10
504.00	207.83
505.00	208.91
506.00	206.50
507.00	205.87
508.00	206.41
509.00	206.88
510.00	209.68
511.00	211.08
512.00	205.18
513.00	204.64
514.00	204.15
515.00	207.05
516.00	205.68
517.00	205.47
518.00	202.76
519.00	203.91
520.00	209.78
521.00	205.78
522.00	206.38
523.00	200.67
524.00	201.44
525.00	206.09
526.00	208.73
527.00	202.99
528.00	205.60
529.00	208.00
530.00	200.99
531.00	200.57
532.00	203.49
533.00	204.98
534.00	206.34
535.00	208.06
536.00	210.78
537.00	210.60
538.00	217.48
539.00	219.58
540.00	240.34
541.00	266.85
542.00	323.29
543.00	335.16
544.00	320.81
545.00	312.47
546.00	310.24
547.00	249.52
548.00	231.89
549.00	237.01
550.00	232.49
551.00	225.00
552.00	223.24
553.00	218.89
554.00	212.98
555.00	209.19
556.00	206.41
557.00	209.19
558.00	205.52
559.00	203.96
560.00	207.96
561.00	203.39
562.00	201.11
563.00	201.96
564.00	205.16
565.00	205.98
566.00	203.65
567.00	204.27
568.00	205.97
569.00	203.31
570.00	213.13
571.00	215.63
572.00	205.53
573.00	206.38
574.00	215.96
575.00	202.98
576.00	208.24
577.00	212.53
578.00	208.53
579.00	214.89
580.00	223.44
581.00	220.11
582.00	222.70
583.00	228.41
584.00	232.48
585.00	225.83
586.00	223.17
587.00	241.25
588.00	226.61
589.00	222.98
590.00	222.54
591.00	213.27
592.00	217.34
593.00	218.94
594.00	217.02
595.00	210.73
596.00	208.36
597.00	212.43
598.00	209.90
599.00	214.62
600.00	211.62
601.00	214.08
602.00	206.30
603.00	205.86
604.00	205.45
605.00	211.32
606.00	209.03
607.00	213.74
608.00	210.25
609.00	217.94
610.00	243.97
611.00	350.82
612.00	310.62
613.00	263.66
614.00	245.07
615.00	236.73
616.00	220.80
617.00	221.00
618.00	215.03
619.00	232.68
620.00	218.05
621.00	222.80
622.00	220.91
623.00	215.99
624.00	211.25
625.00	212.67
626.00	214.91
627.00	208.01
628.00	209.81
629.00	214.97
630.00	213.56
631.00	222.70
632.00	210.01
633.00	206.96
634.00	207.96
635.00	208.00
636.00	208.69
637.00	204.20
638.00	207.54
639.00	205.87
640.00	206.13
641.00	202.40
642.00	202.41
643.00	203.41
644.00	202.92
645.00	203.80
646.00	210.13
647.00	208.93
648.00	201.08
649.00	202.33
650.00	205.71
651.00	206.92
652.00	204.04
653.00	202.32
654.00	206.99
655.00	203.36
656.00	205.88
657.00	204.02
658.00	204.01
659.00	201.93
660.00	205.74
661.00	203.71
662.00	207.02
663.00	207.30
664.00	214.76
665.00	203.95
666.00	200.57
667.00	203.72
668.00	206.05
669.00	204.22
670.00	204.51
671.00	200.85
672.00	203.11
673.00	207.00
674.00	203.06
675.00	205.71
676.00	207.64
677.00	202.82
678.00	206.48
679.00	207.05
680.00	205.59
681.00	205.28
682.00	210.03
683.00	204.32
684.00	210.44
685.00	210.27
686.00	203.85
687.00	206.95
688.00	205.25
689.00	205.29
690.00	202.17
691.00	203.06
692.00	204.46
693.00	198.87
694.00	204.45
695.00	203.03
696.00	203.00
697.00	207.05
698.00	201.88
699.00	202.65
700.00	207.19
701.00	202.84
702.00	206.22
703.00	205.61
704.00	202.93
705.00	206.86
706.00	207.61
707.00	206.39
708.00	208.31
709.00	208.71
710.00	204.51
711.00	207.24
712.00	206.67
713.00	205.65
714.00	206.62
715.00	204.95
716.00	205.76
717.00	204.00
718.00	206.19
719.00	203.71
720.00	204.47
721.00	204.32
722.00	206.08
723.00	202.63
724.00	205.02
725.00	220.56
726.00	203.49
727.00	201.98
728.00	204.60
729.00	203.02
730.00	200.29
731.00	204.57
732.00	204.83
733.00	202.67
734.00	203.34
735.00	199.00
736.00	201.78
737.00	203.52
738.00	204.18
739.00	206.13
740.00	204.04
741.00	198.91
742.00	202.01
743.00	200.98
744.00	198.92
745.00	212.39
746.00	197.10
747.00	203.25
748.00	203.24
749.00	203.15
750.00	199.77
751.00	200.90
752.00	201.05
753.00	200.71
754.00	205.15
755.00	206.11
756.00	199.10
757.00	205.41
758.00	204.01
759.00	201.92
760.00	203.30
761.00	201.44
762.00	201.68
763.00	209.01
764.00	202.01
765.00	201.18
766.00	199.53
767.00	204.12
768.00	205.19
769.00	202.56
770.00	202.21
771.00	198.48
772.00	204.71
773.00	204.30
774.00	200.28
775.00	212.21
776.00	205.88
777.00	203.68
778.00	206.04
779.00	209.63
780.00	205.67
781.00	201.74
782.00	201.89
783.00	201.74
784.00	204.44
785.00	205.87
786.00	201.77
787.00	202.87
788.00	200.87
789.00	204.99
790.00	202.39
791.00	201.24
792.00	201.35
793.00	202.93
794.00	203.99
795.00	202.81
796.00	199.45
797.00	204.03
798.00	203.08
799.00	205.89
800.00	204.31
801.00	204.28
802.00	203.00
803.00	205.56
804.00	199.80
805.00	204.90
806.00	207.12
807.00	203.01
808.00	203.33
809.00	204.02
810.00	201.56
811.00	203.16
812.00	203.71
813.00	204.90
814.00	207.26
815.00	198.86
816.00	203.28
817.00	209.07
818.00	202.08
819.00	203.63
820.00	203.84
821.00	203.84
822.00	208.02
823.00	202.93
824.00	201.52
825.00	208.46
826.00	203.17
827.00	204.97
828.00	204.09
829.00	204.59
830.00	204.07
831.00	203.73
832.00	204.55
833.00	206.61
834.00	206.15
835.00	199.96
836.00	202.00
837.00	202.34
838.00	204.38
839.00	198.92
840.00	203.36
841.00	201.87
842.00	205.36
843.00	206.28
844.00	203.00
845.00	204.27
846.00	200.79
847.00	203.82
848.00	201.98
849.00	201.75
850.00	203.89
851.00	204.07
852.00	208.28
853.00	199.92
854.00	203.99
855.00	202.86
856.00	211.64
857.00	202.72
858.00	208.06
859.00	207.18
860.00	206.36
861.00	209.56
862.00	202.42
863.00	199.32
864.00	201.77
865.00	201.48
866.00	201.50
867.00	203.51
868.00	201.98
869.00	204.90
870.00	198.88
871.00	202.36
872.00	199.99
873.00	205.07
874.00	204.19
875.00	204.95
876.00	202.44
877.00	203.62
878.00	206.03
879.00	207.30
880.00	200.03
881.00	201.71
882.00	199.97
883.00	205.38
884.00	204.01
885.00	204.48
886.00	204.98
887.00	202.68
888.00	200.19
889.00	204.94
890.00	201.84
891.00	211.15
892.00	205.41
893.00	206.65
894.00	199.30
895.00	205.97
896.00	200.26
897.00	200.13
898.00	203.23
899.00	197.43
900.00	203.59
901.00	203.81
902.00	202.21
903.00	211.11
904.00	204.71
905.00	201.03
906.00	207.56
907.00	205.19
908.00	203.36
909.00	199.73
910.00	201.22
911.00	202.72
912.00	204.44
913.00	200.28
914.00	202.46
915.00	203.90
916.00	206.60
917.00	202.41
918.00	203.05
919.00	205.93
920.00	202.01
921.00	206.90
922.00	201.25
923.00	198.98
924.00	202.14
925.00	208.06
926.00	205.01
927.00	207.30
928.00	202.77
929.00	204.95
930.00	201.81
931.00	201.03
932.00	202.19
933.00	202.96
934.00	201.30
935.00	199.24
936.00	201.23
937.00	200.12
938.00	205.87
939.00	202.43
940.00	203.82
941.00	204.41
942.00	207.93
943.00	205.56
944.00	200.60
945.00	207.16
946.00	204.47
947.00	205.98
948.00	200.83
949.00	201.58
950.00	205.62
951.00	202.87
952.00	205.03
953.00	206.06
954.00	200.20
955.00	202.44
956.00	202.35
957.00	202.46
958.00	206.04
959.00	201.99
960.00	203.66
961.00	199.44
962.00	204.19
963.00	201.08
964.00	201.65
965.00	205.48
966.00	204.97
967.00	205.30
968.00	205.02
969.00	203.71
970.00	203.56
971.00	204.32
972.00	203.02
973.00	206.67
974.00	202.33
975.00	201.63
976.00	204.16
977.00	205.04
978.00	203.54
979.00	199.32
980.00	205.80
981.00	198.80
982.00	206.56
983.00	204.37
984.00	205.71
985.00	203.18
986.00	206.99
987.00	202.44
988.00	202.48
989.00	199.37
990.00	202.92
991.00	206.44
992.00	206.40
993.00	202.03
994.00	201.13
995.00	202.35
996.00	202.13
997.00	201.69
998.00	201.99
999.00	203.00
1000.00	202.11
>>>>>End Processed Spectral Data<<<<<
