SpectraSuite Data File
++++++++++++++++++++++++++++++++++++
Date: Tue Oct 18 15:10:02 CDT 2011
User: Helimak
Dark Spectrum Present: No
Reference Spectrum Present: No
Number of Sampled Component Spectra: 1
Spectrometers: USB2G37154
Integration Time (usec): 200000 (USB2G37154)
Spectra Averaged: 1 (USB2G37154)
Boxcar Smoothing: 0 (USB2G37154)
Correct for Electrical Dark: No (USB2G37154)
Strobe/Lamp Enabled: No (USB2G37154)
Correct for Detector Non-linearity: No (USB2G37154)
Correct for Stray Light: No (USB2G37154)
Number of Pixels in Processed Spectrum: 651
>>>>>Begin Processed Spectral Data<<<<<
350.00	196.89
351.00	198.70
352.00	197.77
353.00	197.31
354.00	203.29
355.00	203.81
356.00	203.35
357.00	200.99
358.00	204.58
359.00	200.89
360.00	205.11
361.00	199.66
362.00	208.44
363.00	207.64
364.00	206.99
365.00	198.12
366.00	201.88
367.00	202.75
368.00	197.91
369.00	204.24
370.00	202.06
371.00	203.12
372.00	205.45
373.00	206.12
374.00	203.67
375.00	208.73
376.00	205.56
377.00	203.72
378.00	206.59
379.00	203.71
380.00	200.07
381.00	203.67
382.00	203.63
383.00	203.07
384.00	202.25
385.00	202.36
386.00	207.97
387.00	208.77
388.00	199.07
389.00	199.68
390.00	205.77
391.00	208.86
392.00	206.23
393.00	210.03
394.00	206.90
395.00	204.10
396.00	203.16
397.00	201.25
398.00	207.57
399.00	202.44
400.00	204.92
401.00	205.49
402.00	203.96
403.00	206.97
404.00	209.30
405.00	203.65
406.00	204.99
407.00	209.51
408.00	199.60
409.00	201.35
410.00	204.62
411.00	204.55
412.00	209.63
413.00	203.98
414.00	207.22
415.00	206.09
416.00	201.52
417.00	206.19
418.00	204.56
419.00	205.91
420.00	202.43
421.00	204.35
422.00	206.70
423.00	202.53
424.00	203.94
425.00	203.92
426.00	202.60
427.00	209.99
428.00	203.23
429.00	202.33
430.00	207.58
431.00	204.63
432.00	209.73
433.00	210.83
434.00	208.37
435.00	245.55
436.00	228.54
437.00	219.11
438.00	205.93
439.00	206.67
440.00	203.16
441.00	206.77
442.00	208.43
443.00	208.18
444.00	206.95
445.00	208.10
446.00	209.35
447.00	209.21
448.00	214.62
449.00	206.92
450.00	206.97
451.00	209.29
452.00	208.05
453.00	207.58
454.00	207.38
455.00	206.36
456.00	211.85
457.00	208.27
458.00	211.30
459.00	206.80
460.00	209.79
461.00	207.13
462.00	208.77
463.00	209.43
464.00	207.70
465.00	212.66
466.00	214.14
467.00	210.38
468.00	206.56
469.00	207.34
470.00	209.98
471.00	206.75
472.00	209.52
473.00	207.93
474.00	211.35
475.00	206.49
476.00	206.34
477.00	204.25
478.00	204.41
479.00	207.82
480.00	210.10
481.00	203.42
482.00	207.70
483.00	211.92
484.00	214.78
485.00	216.92
486.00	224.16
487.00	222.44
488.00	223.80
489.00	223.00
490.00	222.00
491.00	221.69
492.00	220.84
493.00	219.96
494.00	216.15
495.00	215.70
496.00	214.20
497.00	214.69
498.00	220.51
499.00	211.26
500.00	210.10
501.00	205.75
502.00	206.00
503.00	204.84
504.00	206.55
505.00	205.21
506.00	208.61
507.00	211.97
508.00	205.47
509.00	206.33
510.00	201.19
511.00	207.98
512.00	205.52
513.00	205.26
514.00	204.03
515.00	199.07
516.00	205.92
517.00	209.11
518.00	205.29
519.00	207.69
520.00	208.18
521.00	206.90
522.00	205.44
523.00	203.72
524.00	201.75
525.00	207.88
526.00	205.97
527.00	206.02
528.00	207.09
529.00	204.24
530.00	206.10
531.00	206.74
532.00	205.28
533.00	206.86
534.00	206.09
535.00	203.76
536.00	201.35
537.00	211.44
538.00	215.46
539.00	218.35
540.00	233.12
541.00	263.02
542.00	318.82
543.00	329.65
544.00	311.06
545.00	307.88
546.00	310.51
547.00	248.05
548.00	237.18
549.00	235.91
550.00	225.16
551.00	229.02
552.00	221.34
553.00	218.84
554.00	211.49
555.00	204.32
556.00	207.90
557.00	203.06
558.00	203.79
559.00	208.27
560.00	208.01
561.00	205.41
562.00	202.11
563.00	203.71
564.00	204.08
565.00	205.46
566.00	206.55
567.00	205.03
568.00	202.91
569.00	200.15
570.00	210.73
571.00	217.39
572.00	211.24
573.00	207.86
574.00	208.95
575.00	206.24
576.00	206.54
577.00	210.11
578.00	207.96
579.00	220.26
580.00	221.17
581.00	217.19
582.00	218.76
583.00	225.86
584.00	231.48
585.00	222.38
586.00	221.67
587.00	233.22
588.00	233.06
589.00	220.32
590.00	218.05
591.00	215.83
592.00	215.87
593.00	216.08
594.00	211.02
595.00	211.03
596.00	208.57
597.00	206.85
598.00	207.79
599.00	213.56
600.00	211.32
601.00	208.98
602.00	210.76
603.00	206.94
604.00	205.82
605.00	207.82
606.00	207.09
607.00	210.23
608.00	211.39
609.00	215.84
610.00	236.52
611.00	341.15
612.00	300.85
613.00	257.14
614.00	239.65
615.00	236.31
616.00	226.53
617.00	212.98
618.00	220.46
619.00	225.17
620.00	218.15
621.00	219.61
622.00	213.85
623.00	212.92
624.00	214.65
625.00	217.23
626.00	213.99
627.00	212.90
628.00	214.60
629.00	216.60
630.00	215.39
631.00	222.27
632.00	211.27
633.00	207.11
634.00	206.90
635.00	208.91
636.00	206.12
637.00	207.23
638.00	203.68
639.00	203.72
640.00	210.45
641.00	206.45
642.00	207.60
643.00	203.18
644.00	203.89
645.00	204.93
646.00	206.92
647.00	205.26
648.00	204.80
649.00	203.74
650.00	205.54
651.00	207.91
652.00	205.94
653.00	202.77
654.00	204.96
655.00	202.29
656.00	202.07
657.00	202.05
658.00	207.00
659.00	205.99
660.00	207.58
661.00	205.39
662.00	205.69
663.00	205.88
664.00	207.24
665.00	207.12
666.00	203.10
667.00	206.62
668.00	207.86
669.00	199.91
670.00	202.51
671.00	203.49
672.00	203.95
673.00	203.99
674.00	202.11
675.00	207.66
676.00	202.06
677.00	203.22
678.00	206.10
679.00	203.08
680.00	207.12
681.00	206.57
682.00	208.28
683.00	205.96
684.00	211.45
685.00	207.69
686.00	207.01
687.00	202.59
688.00	207.33
689.00	204.71
690.00	203.90
691.00	208.24
692.00	202.22
693.00	202.90
694.00	204.94
695.00	199.95
696.00	206.00
697.00	209.89
698.00	204.03
699.00	205.66
700.00	202.13
701.00	203.48
702.00	202.79
703.00	207.14
704.00	207.46
705.00	204.06
706.00	204.73
707.00	206.58
708.00	207.27
709.00	208.68
710.00	205.52
711.00	207.06
712.00	205.38
713.00	206.48
714.00	200.46
715.00	201.57
716.00	203.11
717.00	203.36
718.00	197.22
719.00	203.18
720.00	204.75
721.00	204.36
722.00	206.14
723.00	202.87
724.00	204.92
725.00	216.14
726.00	201.35
727.00	202.66
728.00	201.94
729.00	204.64
730.00	202.97
731.00	204.67
732.00	202.63
733.00	205.22
734.00	208.84
735.00	201.87
736.00	201.34
737.00	202.56
738.00	200.58
739.00	203.99
740.00	204.92
741.00	197.90
742.00	205.99
743.00	204.99
744.00	202.89
745.00	211.13
746.00	200.66
747.00	201.77
748.00	202.15
749.00	205.31
750.00	202.40
751.00	202.96
752.00	202.68
753.00	202.11
754.00	200.53
755.00	202.17
756.00	204.84
757.00	202.74
758.00	205.35
759.00	205.91
760.00	207.92
761.00	206.05
762.00	204.88
763.00	207.97
764.00	206.96
765.00	205.03
766.00	204.91
767.00	199.77
768.00	206.47
769.00	201.92
770.00	203.98
771.00	202.55
772.00	199.70
773.00	203.02
774.00	202.57
775.00	206.43
776.00	202.41
777.00	203.41
778.00	206.00
779.00	204.39
780.00	200.78
781.00	205.30
782.00	201.12
783.00	198.99
784.00	203.57
785.00	205.97
786.00	201.39
787.00	203.74
788.00	203.35
789.00	208.04
790.00	200.08
791.00	202.22
792.00	199.58
793.00	201.87
794.00	204.03
795.00	205.56
796.00	200.50
797.00	199.27
798.00	208.33
799.00	197.77
800.00	200.89
801.00	193.07
802.00	200.82
803.00	210.90
804.00	198.66
805.00	197.18
806.00	206.91
807.00	202.05
808.00	207.16
809.00	204.22
810.00	204.63
811.00	202.72
812.00	205.25
813.00	205.10
814.00	204.32
815.00	200.19
816.00	201.07
817.00	208.51
818.00	202.63
819.00	202.53
820.00	201.30
821.00	204.02
822.00	205.76
823.00	202.97
824.00	202.52
825.00	211.64
826.00	201.44
827.00	202.12
828.00	198.12
829.00	208.84
830.00	202.71
831.00	204.94
832.00	202.09
833.00	203.63
834.00	205.25
835.00	205.12
836.00	203.82
837.00	205.41
838.00	201.42
839.00	204.92
840.00	201.93
841.00	203.24
842.00	204.99
843.00	209.40
844.00	206.10
845.00	205.97
846.00	201.38
847.00	205.02
848.00	205.01
849.00	203.92
850.00	200.76
851.00	204.44
852.00	203.38
853.00	206.47
854.00	206.69
855.00	200.33
856.00	211.98
857.00	204.09
858.00	203.19
859.00	201.93
860.00	203.25
861.00	205.12
862.00	203.61
863.00	201.50
864.00	204.02
865.00	203.99
866.00	206.45
867.00	203.21
868.00	201.93
869.00	207.65
870.00	202.03
871.00	200.94
872.00	205.04
873.00	202.87
874.00	202.20
875.00	203.25
876.00	204.89
877.00	200.01
878.00	203.79
879.00	202.71
880.00	201.29
881.00	206.61
882.00	203.68
883.00	204.48
884.00	203.98
885.00	202.31
886.00	203.20
887.00	203.74
888.00	201.28
889.00	201.16
890.00	206.16
891.00	207.17
892.00	202.77
893.00	204.85
894.00	201.95
895.00	205.71
896.00	203.98
897.00	203.35
898.00	203.91
899.00	201.41
900.00	202.66
901.00	201.71
902.00	201.15
903.00	206.57
904.00	203.86
905.00	197.90
906.00	205.88
907.00	202.55
908.00	206.47
909.00	197.98
910.00	201.67
911.00	201.94
912.00	202.30
913.00	204.28
914.00	202.16
915.00	205.24
916.00	205.48
917.00	201.08
918.00	206.05
919.00	203.56
920.00	200.33
921.00	207.69
922.00	204.14
923.00	202.98
924.00	197.89
925.00	203.57
926.00	199.98
927.00	206.65
928.00	198.08
929.00	202.02
930.00	206.11
931.00	206.35
932.00	200.11
933.00	205.65
934.00	202.05
935.00	198.94
936.00	200.03
937.00	202.08
938.00	206.16
939.00	202.86
940.00	199.96
941.00	204.59
942.00	204.87
943.00	206.63
944.00	203.15
945.00	203.78
946.00	202.69
947.00	204.06
948.00	205.18
949.00	200.77
950.00	201.89
951.00	205.83
952.00	200.98
953.00	200.76
954.00	200.29
955.00	205.80
956.00	203.35
957.00	201.79
958.00	203.79
959.00	201.96
960.00	200.89
961.00	201.14
962.00	203.91
963.00	203.27
964.00	198.53
965.00	202.15
966.00	198.42
967.00	204.10
968.00	204.99
969.00	201.98
970.00	204.53
971.00	205.11
972.00	199.32
973.00	204.41
974.00	206.14
975.00	203.32
976.00	202.78
977.00	203.03
978.00	205.18
979.00	204.46
980.00	200.88
981.00	203.03
982.00	204.05
983.00	204.99
984.00	205.51
985.00	206.60
986.00	202.36
987.00	202.05
988.00	204.54
989.00	206.68
990.00	202.82
991.00	209.80
992.00	206.62
993.00	203.38
994.00	207.77
995.00	198.56
996.00	201.74
997.00	201.17
998.00	204.16
999.00	206.21
1000.00	199.90
>>>>>End Processed Spectral Data<<<<<
