SpectraSuite Data File
++++++++++++++++++++++++++++++++++++
Date: Tue Oct 18 15:10:03 CDT 2011
User: Helimak
Dark Spectrum Present: No
Reference Spectrum Present: No
Number of Sampled Component Spectra: 1
Spectrometers: USB2G37154
Integration Time (usec): 200000 (USB2G37154)
Spectra Averaged: 1 (USB2G37154)
Boxcar Smoothing: 0 (USB2G37154)
Correct for Electrical Dark: No (USB2G37154)
Strobe/Lamp Enabled: No (USB2G37154)
Correct for Detector Non-linearity: No (USB2G37154)
Correct for Stray Light: No (USB2G37154)
Number of Pixels in Processed Spectrum: 651
>>>>>Begin Processed Spectral Data<<<<<
350.00	201.02
351.00	199.18
352.00	200.32
353.00	199.57
354.00	201.65
355.00	204.98
356.00	197.98
357.00	202.03
358.00	206.72
359.00	200.21
360.00	202.69
361.00	198.69
362.00	206.60
363.00	200.51
364.00	204.92
365.00	200.32
366.00	204.85
367.00	203.81
368.00	203.48
369.00	204.62
370.00	205.06
371.00	201.36
372.00	203.58
373.00	205.12
374.00	206.50
375.00	206.34
376.00	205.05
377.00	204.03
378.00	205.56
379.00	204.15
380.00	204.99
381.00	202.38
382.00	204.94
383.00	208.81
384.00	202.02
385.00	200.85
386.00	202.94
387.00	204.46
388.00	204.20
389.00	203.50
390.00	204.68
391.00	201.23
392.00	203.15
393.00	210.03
394.00	208.61
395.00	206.70
396.00	205.96
397.00	205.21
398.00	204.67
399.00	209.75
400.00	205.57
401.00	209.22
402.00	208.90
403.00	207.11
404.00	214.52
405.00	210.00
406.00	204.01
407.00	205.40
408.00	202.21
409.00	201.94
410.00	202.92
411.00	205.79
412.00	205.36
413.00	205.08
414.00	200.59
415.00	206.00
416.00	206.21
417.00	206.07
418.00	208.45
419.00	205.36
420.00	207.12
421.00	205.74
422.00	207.59
423.00	204.54
424.00	201.46
425.00	207.38
426.00	200.33
427.00	208.94
428.00	205.32
429.00	204.65
430.00	204.65
431.00	207.45
432.00	212.75
433.00	210.47
434.00	210.36
435.00	250.64
436.00	228.17
437.00	218.87
438.00	207.89
439.00	205.40
440.00	206.92
441.00	208.03
442.00	206.88
443.00	208.67
444.00	208.22
445.00	206.06
446.00	208.11
447.00	209.53
448.00	204.54
449.00	208.15
450.00	207.54
451.00	207.03
452.00	206.46
453.00	207.73
454.00	204.27
455.00	210.92
456.00	208.92
457.00	210.42
458.00	207.44
459.00	207.05
460.00	208.23
461.00	210.74
462.00	213.04
463.00	209.94
464.00	210.14
465.00	211.61
466.00	213.28
467.00	209.12
468.00	207.78
469.00	213.32
470.00	207.22
471.00	204.94
472.00	205.01
473.00	203.87
474.00	207.83
475.00	208.56
476.00	205.03
477.00	205.32
478.00	208.28
479.00	209.16
480.00	203.14
481.00	204.07
482.00	211.17
483.00	211.34
484.00	212.11
485.00	220.05
486.00	223.74
487.00	223.98
488.00	223.45
489.00	225.93
490.00	222.30
491.00	222.53
492.00	219.72
493.00	222.97
494.00	215.51
495.00	217.97
496.00	217.29
497.00	213.93
498.00	211.05
499.00	210.09
500.00	211.53
501.00	203.01
502.00	209.99
503.00	204.35
504.00	208.18
505.00	205.11
506.00	207.61
507.00	208.13
508.00	205.36
509.00	206.42
510.00	206.27
511.00	209.02
512.00	206.64
513.00	203.30
514.00	204.24
515.00	202.32
516.00	206.99
517.00	204.73
518.00	205.83
519.00	206.65
520.00	203.09
521.00	208.63
522.00	204.52
523.00	204.21
524.00	203.37
525.00	205.00
526.00	210.40
527.00	205.18
528.00	204.13
529.00	209.19
530.00	199.94
531.00	204.21
532.00	208.35
533.00	208.49
534.00	211.64
535.00	206.97
536.00	211.26
537.00	213.46
538.00	216.63
539.00	221.40
540.00	232.95
541.00	259.42
542.00	313.46
543.00	327.59
544.00	314.73
545.00	312.05
546.00	314.34
547.00	249.01
548.00	233.05
549.00	234.10
550.00	228.32
551.00	223.01
552.00	224.56
553.00	219.78
554.00	210.63
555.00	209.21
556.00	208.07
557.00	204.93
558.00	205.65
559.00	203.38
560.00	206.94
561.00	202.84
562.00	211.00
563.00	205.11
564.00	209.39
565.00	204.97
566.00	204.25
567.00	207.81
568.00	203.16
569.00	202.98
570.00	210.67
571.00	216.79
572.00	203.11
573.00	208.47
574.00	207.84
575.00	208.51
576.00	211.20
577.00	212.50
578.00	210.98
579.00	216.02
580.00	226.09
581.00	220.20
582.00	218.25
583.00	226.57
584.00	227.88
585.00	221.05
586.00	221.30
587.00	233.22
588.00	224.44
589.00	223.14
590.00	221.91
591.00	217.98
592.00	218.12
593.00	222.14
594.00	217.01
595.00	207.91
596.00	206.61
597.00	205.94
598.00	211.13
599.00	213.03
600.00	212.27
601.00	211.13
602.00	205.07
603.00	203.34
604.00	208.14
605.00	210.01
606.00	204.45
607.00	209.08
608.00	207.15
609.00	215.86
610.00	240.01
611.00	353.07
612.00	304.76
613.00	258.78
614.00	241.75
615.00	234.60
616.00	222.85
617.00	216.03
618.00	218.96
619.00	213.74
620.00	216.01
621.00	221.34
622.00	218.24
623.00	209.08
624.00	212.51
625.00	208.01
626.00	212.04
627.00	212.01
628.00	211.26
629.00	214.31
630.00	211.60
631.00	219.56
632.00	217.20
633.00	205.50
634.00	205.02
635.00	205.90
636.00	207.33
637.00	206.86
638.00	206.06
639.00	201.59
640.00	203.68
641.00	207.03
642.00	207.17
643.00	204.61
644.00	206.96
645.00	202.56
646.00	210.99
647.00	203.89
648.00	203.42
649.00	203.50
650.00	209.97
651.00	209.07
652.00	204.32
653.00	207.13
654.00	206.45
655.00	203.18
656.00	202.62
657.00	205.97
658.00	206.00
659.00	202.97
660.00	203.26
661.00	202.97
662.00	204.23
663.00	200.37
664.00	212.15
665.00	204.35
666.00	202.62
667.00	210.04
668.00	209.66
669.00	205.51
670.00	204.14
671.00	201.95
672.00	207.01
673.00	205.99
674.00	204.25
675.00	203.83
676.00	205.85
677.00	204.72
678.00	204.30
679.00	205.46
680.00	204.00
681.00	208.26
682.00	209.08
683.00	206.62
684.00	211.17
685.00	211.41
686.00	202.50
687.00	205.56
688.00	205.44
689.00	202.16
690.00	201.85
691.00	210.82
692.00	202.38
693.00	205.00
694.00	203.82
695.00	198.91
696.00	203.00
697.00	207.08
698.00	206.55
699.00	204.85
700.00	201.96
701.00	201.90
702.00	201.39
703.00	203.83
704.00	205.88
705.00	202.26
706.00	211.54
707.00	204.36
708.00	203.78
709.00	208.22
710.00	205.36
711.00	203.25
712.00	207.42
713.00	205.77
714.00	208.77
715.00	203.14
716.00	202.82
717.00	201.54
718.00	204.39
719.00	204.87
720.00	203.84
721.00	199.47
722.00	198.90
723.00	204.41
724.00	204.89
725.00	220.48
726.00	200.61
727.00	204.82
728.00	202.03
729.00	203.99
730.00	202.44
731.00	206.78
732.00	201.18
733.00	201.70
734.00	203.42
735.00	202.19
736.00	198.36
737.00	205.22
738.00	206.73
739.00	203.85
740.00	201.73
741.00	200.82
742.00	200.91
743.00	204.94
744.00	198.05
745.00	212.56
746.00	201.95
747.00	201.75
748.00	202.09
749.00	201.74
750.00	203.54
751.00	207.50
752.00	198.67
753.00	202.31
754.00	204.25
755.00	204.55
756.00	204.65
757.00	202.97
758.00	205.65
759.00	207.54
760.00	203.74
761.00	203.80
762.00	204.70
763.00	209.09
764.00	204.01
765.00	207.09
766.00	204.92
767.00	202.23
768.00	204.77
769.00	202.18
770.00	202.52
771.00	201.80
772.00	202.17
773.00	205.17
774.00	204.05
775.00	208.36
776.00	204.75
777.00	207.01
778.00	194.05
779.00	207.70
780.00	202.25
781.00	202.27
782.00	202.70
783.00	205.05
784.00	206.79
785.00	203.70
786.00	204.36
787.00	203.28
788.00	201.30
789.00	201.00
790.00	200.99
791.00	201.28
792.00	203.17
793.00	202.29
794.00	202.00
795.00	203.74
796.00	204.64
797.00	203.73
798.00	204.23
799.00	203.89
800.00	203.12
801.00	202.73
802.00	201.79
803.00	206.14
804.00	199.44
805.00	198.43
806.00	205.23
807.00	199.86
808.00	210.02
809.00	205.75
810.00	204.04
811.00	207.86
812.00	205.23
813.00	204.15
814.00	203.04
815.00	204.00
816.00	202.64
817.00	206.78
818.00	202.28
819.00	203.16
820.00	204.87
821.00	200.93
822.00	203.20
823.00	203.18
824.00	203.81
825.00	213.77
826.00	206.59
827.00	200.69
828.00	198.12
829.00	202.46
830.00	205.45
831.00	200.66
832.00	205.29
833.00	203.77
834.00	198.80
835.00	202.25
836.00	202.59
837.00	203.30
838.00	204.16
839.00	204.12
840.00	203.82
841.00	203.63
842.00	204.38
843.00	209.27
844.00	198.13
845.00	203.10
846.00	205.43
847.00	207.92
848.00	199.63
849.00	200.49
850.00	204.32
851.00	200.91
852.00	203.70
853.00	210.41
854.00	203.90
855.00	204.26
856.00	213.19
857.00	204.00
858.00	210.28
859.00	206.35
860.00	201.56
861.00	206.80
862.00	202.12
863.00	203.42
864.00	205.65
865.00	203.36
866.00	202.39
867.00	204.66
868.00	204.98
869.00	205.28
870.00	206.28
871.00	204.73
872.00	211.66
873.00	203.36
874.00	203.89
875.00	201.51
876.00	205.95
877.00	203.54
878.00	203.85
879.00	207.95
880.00	202.78
881.00	205.86
882.00	204.03
883.00	205.70
884.00	200.00
885.00	204.16
886.00	199.65
887.00	204.62
888.00	202.28
889.00	206.49
890.00	206.00
891.00	200.34
892.00	208.11
893.00	203.48
894.00	202.91
895.00	204.00
896.00	204.31
897.00	200.69
898.00	207.82
899.00	204.42
900.00	207.11
901.00	203.99
902.00	199.91
903.00	205.21
904.00	200.25
905.00	203.01
906.00	206.73
907.00	203.41
908.00	205.40
909.00	201.06
910.00	199.02
911.00	202.83
912.00	203.54
913.00	202.27
914.00	207.83
915.00	203.58
916.00	204.65
917.00	205.24
918.00	200.03
919.00	208.31
920.00	203.98
921.00	206.24
922.00	206.83
923.00	206.14
924.00	203.87
925.00	204.78
926.00	201.00
927.00	206.97
928.00	206.59
929.00	203.90
930.00	202.99
931.00	204.97
932.00	203.31
933.00	205.08
934.00	206.95
935.00	201.52
936.00	203.38
937.00	202.99
938.00	204.83
939.00	202.03
940.00	202.51
941.00	200.65
942.00	206.93
943.00	204.19
944.00	201.70
945.00	206.46
946.00	204.49
947.00	202.01
948.00	206.37
949.00	202.62
950.00	206.03
951.00	206.01
952.00	204.96
953.00	203.38
954.00	199.70
955.00	206.60
956.00	207.05
957.00	205.14
958.00	202.56
959.00	200.98
960.00	202.44
961.00	207.68
962.00	201.75
963.00	206.60
964.00	201.20
965.00	201.72
966.00	204.22
967.00	207.48
968.00	201.99
969.00	201.83
970.00	204.53
971.00	205.85
972.00	207.56
973.00	205.16
974.00	206.30
975.00	202.15
976.00	205.01
977.00	202.64
978.00	205.28
979.00	203.98
980.00	201.20
981.00	203.23
982.00	205.17
983.00	204.86
984.00	204.40
985.00	203.27
986.00	203.02
987.00	201.18
988.00	205.60
989.00	202.82
990.00	200.92
991.00	202.64
992.00	201.28
993.00	206.54
994.00	201.95
995.00	203.94
996.00	201.03
997.00	200.91
998.00	201.38
999.00	201.59
1000.00	203.01
>>>>>End Processed Spectral Data<<<<<
