SpectraSuite Data File
++++++++++++++++++++++++++++++++++++
Date: Tue Oct 18 15:10:01 CDT 2011
User: Helimak
Dark Spectrum Present: No
Reference Spectrum Present: No
Number of Sampled Component Spectra: 1
Spectrometers: USB2G37154
Integration Time (usec): 200000 (USB2G37154)
Spectra Averaged: 1 (USB2G37154)
Boxcar Smoothing: 0 (USB2G37154)
Correct for Electrical Dark: No (USB2G37154)
Strobe/Lamp Enabled: No (USB2G37154)
Correct for Detector Non-linearity: No (USB2G37154)
Correct for Stray Light: No (USB2G37154)
Number of Pixels in Processed Spectrum: 651
>>>>>Begin Processed Spectral Data<<<<<
350.00	202.06
351.00	201.39
352.00	198.94
353.00	201.56
354.00	199.76
355.00	203.50
356.00	204.95
357.00	196.86
358.00	206.48
359.00	202.84
360.00	202.18
361.00	200.74
362.00	205.93
363.00	200.63
364.00	207.92
365.00	200.40
366.00	198.30
367.00	202.97
368.00	202.93
369.00	201.10
370.00	200.05
371.00	202.75
372.00	205.24
373.00	204.13
374.00	204.01
375.00	206.58
376.00	204.99
377.00	200.27
378.00	208.61
379.00	202.58
380.00	200.20
381.00	204.95
382.00	204.54
383.00	205.64
384.00	204.84
385.00	202.52
386.00	207.01
387.00	201.85
388.00	202.74
389.00	202.91
390.00	202.46
391.00	205.95
392.00	203.53
393.00	205.84
394.00	203.68
395.00	205.14
396.00	198.93
397.00	200.29
398.00	203.20
399.00	206.40
400.00	203.67
401.00	202.14
402.00	203.80
403.00	206.70
404.00	208.24
405.00	204.32
406.00	206.01
407.00	206.07
408.00	202.38
409.00	203.22
410.00	207.59
411.00	205.38
412.00	205.18
413.00	203.97
414.00	206.10
415.00	208.51
416.00	208.69
417.00	207.28
418.00	206.94
419.00	208.60
420.00	212.00
421.00	203.90
422.00	207.72
423.00	208.90
424.00	208.38
425.00	206.57
426.00	208.91
427.00	209.10
428.00	207.07
429.00	206.80
430.00	207.37
431.00	209.33
432.00	208.47
433.00	211.05
434.00	207.33
435.00	250.80
436.00	228.74
437.00	218.45
438.00	207.17
439.00	207.13
440.00	207.92
441.00	206.00
442.00	206.45
443.00	208.08
444.00	208.80
445.00	207.81
446.00	209.62
447.00	204.19
448.00	208.61
449.00	212.97
450.00	212.16
451.00	206.67
452.00	209.79
453.00	207.66
454.00	210.79
455.00	207.94
456.00	209.98
457.00	209.12
458.00	210.58
459.00	208.17
460.00	210.07
461.00	210.18
462.00	208.78
463.00	207.16
464.00	205.14
465.00	214.81
466.00	211.67
467.00	208.03
468.00	212.13
469.00	209.03
470.00	206.87
471.00	207.96
472.00	208.53
473.00	208.06
474.00	209.93
475.00	207.20
476.00	204.22
477.00	208.24
478.00	207.28
479.00	207.26
480.00	208.98
481.00	196.33
482.00	208.24
483.00	212.25
484.00	214.97
485.00	227.73
486.00	222.39
487.00	219.30
488.00	224.88
489.00	223.95
490.00	222.84
491.00	221.49
492.00	220.11
493.00	215.03
494.00	216.25
495.00	212.53
496.00	213.66
497.00	213.81
498.00	216.02
499.00	211.72
500.00	212.54
501.00	208.01
502.00	210.00
503.00	207.34
504.00	208.37
505.00	208.99
506.00	208.58
507.00	206.59
508.00	203.61
509.00	201.61
510.00	205.84
511.00	206.02
512.00	207.88
513.00	211.87
514.00	204.07
515.00	202.81
516.00	206.96
517.00	203.07
518.00	205.43
519.00	207.26
520.00	207.98
521.00	203.14
522.00	207.08
523.00	200.99
524.00	205.12
525.00	205.24
526.00	205.03
527.00	205.17
528.00	203.84
529.00	208.88
530.00	212.01
531.00	207.30
532.00	204.56
533.00	205.29
534.00	204.31
535.00	205.04
536.00	206.71
537.00	215.12
538.00	221.76
539.00	224.21
540.00	231.36
541.00	265.80
542.00	324.75
543.00	334.85
544.00	324.83
545.00	308.85
546.00	314.11
547.00	249.64
548.00	235.18
549.00	239.64
550.00	228.60
551.00	223.03
552.00	223.47
553.00	219.83
554.00	215.11
555.00	209.76
556.00	207.41
557.00	204.04
558.00	206.64
559.00	205.96
560.00	207.69
561.00	205.36
562.00	207.82
563.00	204.39
564.00	207.16
565.00	205.61
566.00	203.74
567.00	201.94
568.00	204.04
569.00	203.58
570.00	210.41
571.00	214.88
572.00	204.04
573.00	209.67
574.00	207.96
575.00	207.56
576.00	206.31
577.00	215.29
578.00	211.33
579.00	217.03
580.00	220.18
581.00	218.05
582.00	219.01
583.00	223.68
584.00	226.38
585.00	220.28
586.00	227.01
587.00	242.08
588.00	232.19
589.00	221.91
590.00	217.89
591.00	219.06
592.00	216.76
593.00	225.68
594.00	214.02
595.00	207.71
596.00	207.31
597.00	209.78
598.00	212.94
599.00	211.17
600.00	212.13
601.00	213.10
602.00	205.04
603.00	208.08
604.00	205.10
605.00	210.10
606.00	204.74
607.00	211.95
608.00	213.95
609.00	220.90
610.00	242.44
611.00	356.21
612.00	315.18
613.00	262.01
614.00	244.45
615.00	234.48
616.00	224.98
617.00	216.00
618.00	220.99
619.00	233.02
620.00	219.21
621.00	225.20
622.00	219.04
623.00	211.31
624.00	215.38
625.00	216.70
626.00	211.18
627.00	209.34
628.00	210.60
629.00	214.12
630.00	213.27
631.00	225.06
632.00	216.35
633.00	212.04
634.00	209.86
635.00	206.94
636.00	206.36
637.00	203.11
638.00	203.46
639.00	201.02
640.00	205.79
641.00	203.74
642.00	206.38
643.00	207.00
644.00	203.10
645.00	203.13
646.00	209.04
647.00	202.64
648.00	204.18
649.00	205.76
650.00	206.02
651.00	212.54
652.00	208.15
653.00	205.53
654.00	210.63
655.00	205.28
656.00	207.87
657.00	206.01
658.00	204.99
659.00	204.03
660.00	207.02
661.00	210.13
662.00	203.66
663.00	206.83
664.00	211.04
665.00	207.71
666.00	204.50
667.00	205.76
668.00	206.78
669.00	205.23
670.00	206.12
671.00	202.86
672.00	203.82
673.00	201.97
674.00	205.01
675.00	203.56
676.00	205.56
677.00	204.13
678.00	207.24
679.00	204.08
680.00	202.98
681.00	209.78
682.00	216.03
683.00	204.06
684.00	211.79
685.00	210.03
686.00	204.34
687.00	203.11
688.00	205.00
689.00	203.43
690.00	204.15
691.00	202.11
692.00	202.91
693.00	199.36
694.00	208.31
695.00	205.19
696.00	207.00
697.00	208.07
698.00	205.96
699.00	202.67
700.00	202.21
701.00	203.22
702.00	205.90
703.00	202.37
704.00	206.02
705.00	206.05
706.00	202.49
707.00	206.79
708.00	205.18
709.00	208.85
710.00	206.07
711.00	205.04
712.00	211.57
713.00	204.87
714.00	203.23
715.00	206.91
716.00	205.00
717.00	201.70
718.00	205.22
719.00	205.85
720.00	205.56
721.00	208.31
722.00	203.15
723.00	203.36
724.00	206.57
725.00	228.71
726.00	199.81
727.00	203.00
728.00	205.40
729.00	202.64
730.00	202.58
731.00	204.51
732.00	204.67
733.00	206.39
734.00	202.94
735.00	205.63
736.00	203.39
737.00	203.63
738.00	202.24
739.00	201.05
740.00	202.09
741.00	201.88
742.00	204.99
743.00	201.98
744.00	205.06
745.00	209.64
746.00	200.52
747.00	200.39
748.00	201.45
749.00	199.74
750.00	200.42
751.00	201.32
752.00	200.94
753.00	204.42
754.00	202.63
755.00	203.56
756.00	201.90
757.00	205.31
758.00	205.60
759.00	203.96
760.00	207.60
761.00	206.00
762.00	209.42
763.00	203.82
764.00	199.00
765.00	204.99
766.00	200.45
767.00	201.27
768.00	203.15
769.00	204.40
770.00	202.24
771.00	201.14
772.00	204.36
773.00	206.60
774.00	202.97
775.00	212.44
776.00	202.94
777.00	198.78
778.00	200.02
779.00	207.24
780.00	202.42
781.00	199.94
782.00	200.74
783.00	203.98
784.00	202.67
785.00	204.36
786.00	205.91
787.00	204.15
788.00	204.09
789.00	205.97
790.00	199.81
791.00	204.18
792.00	201.86
793.00	201.23
794.00	200.40
795.00	200.97
796.00	200.23
797.00	200.55
798.00	205.95
799.00	199.97
800.00	203.41
801.00	203.32
802.00	204.93
803.00	203.93
804.00	200.39
805.00	200.00
806.00	200.15
807.00	199.05
808.00	205.69
809.00	200.30
810.00	204.30
811.00	203.38
812.00	205.45
813.00	203.92
814.00	203.40
815.00	200.27
816.00	199.98
817.00	205.50
818.00	202.52
819.00	198.33
820.00	204.09
821.00	199.98
822.00	206.38
823.00	205.93
824.00	201.57
825.00	207.69
826.00	204.57
827.00	201.92
828.00	199.65
829.00	203.61
830.00	198.99
831.00	205.38
832.00	204.34
833.00	208.83
834.00	207.02
835.00	206.94
836.00	204.75
837.00	201.65
838.00	202.47
839.00	202.92
840.00	204.18
841.00	204.09
842.00	201.60
843.00	208.54
844.00	196.20
845.00	204.22
846.00	204.20
847.00	202.25
848.00	201.76
849.00	204.44
850.00	202.08
851.00	201.71
852.00	204.99
853.00	197.95
854.00	201.99
855.00	203.55
856.00	207.86
857.00	205.41
858.00	207.71
859.00	205.10
860.00	205.02
861.00	205.39
862.00	207.65
863.00	200.45
864.00	204.03
865.00	205.96
866.00	203.05
867.00	203.76
868.00	203.02
869.00	203.70
870.00	203.25
871.00	202.77
872.00	206.92
873.00	206.79
874.00	203.19
875.00	202.32
876.00	205.09
877.00	201.46
878.00	200.62
879.00	202.15
880.00	200.22
881.00	202.30
882.00	204.56
883.00	203.82
884.00	204.00
885.00	206.78
886.00	201.35
887.00	206.23
888.00	203.68
889.00	201.79
890.00	203.41
891.00	206.06
892.00	205.31
893.00	205.92
894.00	201.85
895.00	208.86
896.00	202.77
897.00	203.37
898.00	202.72
899.00	204.04
900.00	206.31
901.00	203.82
902.00	204.12
903.00	209.05
904.00	202.96
905.00	204.93
906.00	207.98
907.00	205.37
908.00	202.41
909.00	202.78
910.00	205.15
911.00	202.68
912.00	201.99
913.00	203.95
914.00	204.72
915.00	205.08
916.00	205.48
917.00	202.48
918.00	202.41
919.00	202.67
920.00	200.48
921.00	206.79
922.00	200.27
923.00	202.90
924.00	201.29
925.00	198.82
926.00	203.00
927.00	203.84
928.00	200.69
929.00	202.69
930.00	203.63
931.00	205.73
932.00	205.74
933.00	205.85
934.00	200.34
935.00	199.66
936.00	199.78
937.00	203.07
938.00	202.20
939.00	204.33
940.00	203.32
941.00	207.53
942.00	201.98
943.00	203.74
944.00	204.36
945.00	204.07
946.00	207.17
947.00	203.16
948.00	201.71
949.00	202.68
950.00	202.99
951.00	207.85
952.00	205.97
953.00	204.11
954.00	204.03
955.00	204.63
956.00	201.64
957.00	199.96
958.00	199.27
959.00	201.96
960.00	206.10
961.00	203.58
962.00	201.55
963.00	203.55
964.00	205.43
965.00	198.83
966.00	201.20
967.00	201.56
968.00	203.97
969.00	202.46
970.00	204.56
971.00	203.29
972.00	203.63
973.00	207.60
974.00	200.99
975.00	205.67
976.00	207.88
977.00	201.07
978.00	202.11
979.00	203.27
980.00	204.15
981.00	200.81
982.00	202.99
983.00	206.88
984.00	200.99
985.00	203.31
986.00	203.14
987.00	203.51
988.00	207.46
989.00	203.73
990.00	199.81
991.00	203.31
992.00	201.85
993.00	204.16
994.00	204.69
995.00	205.33
996.00	207.22
997.00	204.28
998.00	203.83
999.00	206.30
1000.00	197.96
>>>>>End Processed Spectral Data<<<<<
